{
    "results": [
        {
            "rt": 78282.19999999553,
            "stimulus": "\n  <div class='instructions-container'>\n    <h2 class='instructions-header'>\n      Alternative Uses Task\n    </h2>\n    <p class='instructions'>\n      In this task, you need to come up with alternative uses for a\n      common object.\n    </p>\n\n    <p class='instructions'>\n      When you begin the task, the name of the common object will\n      appear at the top of the screen. Please enter all of the\n      alternative uses you can think of for the object in the text box\n      below, separated by commas. You will have one minute to list\n      all of the uses you can think of.\n    </p>\n\n    <p class='instructions'>\n      Be inventive and try to think of a diverse range of unusual uses that\n      the object would be appropriate for. You don't have to write in full\n      sentences, just give enough information to make it clear what the\n      intended use is.\n    </p>\n\n    <p class='instructions' id='continue' ontouchstart=\"response(32)\">\n      <b>Press the spacebar to continue to an example.</b>\n    </p>\n  </div>",
            "key_press": 32,
            "trial_type": "html-keyboard-response",
            "trial_index": 0,
            "time_elapsed": 78287,
            "internal_node_id": "0.0-0.0"
        },
        {
            "rt": 113848.39999999851,
            "stimulus": "\n  <div class='instructions-container'>\n    <h2 class='instructions-header'>\n      Example\n    </h2>\n    <p class='instructions'>\n      For example, if the object was 'a brick', you might enter the\n      following uses in the textbox like so:\n    </p>\n\n    <div class='question au'>\n\n      <div class='au-header'>\n        <div class='quesiton-title-container'>\n          <h3 class='question-title'>\n            A Brick\n          </h3>\n        </div>\n\n        <div class='countdown-container'>\n          <span id=\"countdown-label\">Time Remaining:</span><span id=\"countdown\">1:00</span>\n        </div>\n\n      </div>\n\n      <textarea class=\"textbox au\" id=\"au-response\" \n      name=\"au-response\" readonly> doorstop, paperweight, bookend, laptop stand, medicine ball, cracking nuts, support for sawing wood, practice retrieving objects from a swimming pool\n      </textarea>\n\n    </div>\n\n    <p class='instructions' id='continue' ontouchstart=\"response(32)\">\n      <b>Your time will start on the next page.\n      Press the spacebar to begin.</b>\n    </p>\n  </div>",
            "key_press": 32,
            "trial_type": "html-keyboard-response",
            "trial_index": 1,
            "time_elapsed": 192645,
            "internal_node_id": "0.0-1.0"
        },
        {
            "rt": 62355.5,
            "responses": "{\"au-response\":\"soldering material, threading needle, drawing blood\",\"au-response-hidden\":\"\"}",
            "trial_part": "trial",
            "task": "AU",
            "item_id": "1_paperclip",
            "item": 1,
            "item_type": "critical",
            "condition": "paperclip",
            "version": "",
            "trial_type": "survey-html-form",
            "trial_index": 2,
            "time_elapsed": 255507,
            "internal_node_id": "0.0-2.0-0.0",
            "response": "soldering material, threading needle, drawing blood"
        },
        {
            "rt": 6253.39999999851,
            "stimulus": "\n  <div class='instructions-container'>\n    <h2 class='instructions-header'>\n      Segment Complete\n    </h2>\n    <p class='instructions'>\n      That concludes this segment of the experiment.\n      Press the spacebar to continue.\n    </p>\n  </div>",
            "key_press": 32,
            "trial_type": "html-keyboard-response",
            "trial_index": 3,
            "time_elapsed": 262266,
            "internal_node_id": "0.0-3.0"
        }
    ],
    "ppt_id": 141
}