{
    "results": [
        {
            "rt": 2888.60000000149,
            "stimulus": "\n             <div class='instructions-container'>\n              <h2 class='instructions-header'>Welcome</h2>\n              <p class='welcome'>Thank you for your interest in this study.</p>\n              <p class='welcome' ontouchstart=\"response(32)\">\n                <b>Press the spacebar to continue</b>\n              </p>\n            </div>",
            "key_press": 32,
            "trial_type": "html-keyboard-response",
            "trial_index": 0,
            "time_elapsed": 2891,
            "internal_node_id": "0.0-0.0"
        },
        {
            "rt": 5440.70000000298,
            "responses": "{\"consent\":\"on\"}",
            "trial_type": "survey-html-form",
            "trial_index": 1,
            "time_elapsed": 8338,
            "internal_node_id": "0.0-1.0"
        },
        {
            "success": true,
            "trial_type": "fullscreen",
            "trial_index": 2,
            "time_elapsed": 10904,
            "internal_node_id": "0.0-2.0"
        },
        {
            "rt": 149394.6000000015,
            "stimulus": "\n  <div class='instructions-container'>\n    <h2 class='instructions-header'>\n      Instructions\n    </h2>\n    <p class='instructions'>\n      In this task, you will read short passages and rate each passage\n      based on whether the last sentence in the passage makes sense\n      in the context of the whole passage.\n    </p>\n\n    <p class='instructions'>\n      The whole passage will appear on the screen at the same time.\n      Below the passage you will see a 7 point scale for rating the \n      final sentence. The scale goes from 1 (virtual nonsense) to 7\n      (completely sensible). Click on the scale to indicate your rating\n      and then click the continue button to procede.\n    </p>\n\n    <p class='instructions'>\n      The full experiment will last around 30 minutes.\n    </p>\n\n    <p class='instructions' id='continue' ontouchstart=\"response(32)\">\n      <b>Press the spacebar to continue</b>\n    </p>\n  </div>",
            "key_press": 32,
            "trial_type": "html-keyboard-response",
            "trial_index": 3,
            "time_elapsed": 160810,
            "internal_node_id": "0.0-3.0"
        },
        {
            "rt": 9898.60000000149,
            "responses": "{\"affordance-response\":\"2\"}",
            "trial_part": "trial",
            "task": "affordance",
            "scale": "SENSIBILITY",
            "item_type": "critical",
            "item_id": "18_nonafforded",
            "item": 18,
            "version": "a",
            "condition": "nonafforded",
            "trial_type": "survey-html-form",
            "trial_index": 4,
            "time_elapsed": 171215,
            "internal_node_id": "0.0-4.0-0.0",
            "response": "2"
        },
        {
            "rt": 6435.19999999553,
            "responses": "{\"affordance-response\":\"4\"}",
            "trial_part": "trial",
            "task": "affordance",
            "scale": "SENSIBILITY",
            "item_type": "critical",
            "item_id": "13_afforded",
            "item": 13,
            "version": "a",
            "condition": "afforded",
            "trial_type": "survey-html-form",
            "trial_index": 5,
            "time_elapsed": 178153,
            "internal_node_id": "0.0-4.0-0.1",
            "response": "4"
        },
        {
            "rt": 14662.5,
            "responses": "{\"affordance-response\":\"2\"}",
            "trial_part": "trial",
            "task": "affordance",
            "scale": "SENSIBILITY",
            "item_type": "critical",
            "item_id": "2_nonafforded",
            "item": 2,
            "version": "a",
            "condition": "nonafforded",
            "trial_type": "survey-html-form",
            "trial_index": 6,
            "time_elapsed": 193321,
            "internal_node_id": "0.0-4.0-0.2",
            "response": "2"
        },
        {
            "rt": 33909.19999999553,
            "responses": "{\"affordance-response\":\"1\"}",
            "trial_part": "trial",
            "task": "affordance",
            "scale": "SENSIBILITY",
            "item_type": "critical",
            "item_id": "4_nonafforded",
            "item": 4,
            "version": "b",
            "condition": "nonafforded",
            "trial_type": "survey-html-form",
            "trial_index": 7,
            "time_elapsed": 227733,
            "internal_node_id": "0.0-4.0-0.3",
            "response": "1"
        },
        {
            "rt": 8415.19999999553,
            "responses": "{\"affordance-response\":\"6\"}",
            "trial_part": "trial",
            "task": "affordance",
            "scale": "SENSIBILITY",
            "item_type": "critical",
            "item_id": "3_related",
            "item": 3,
            "version": "a",
            "condition": "related",
            "trial_type": "survey-html-form",
            "trial_index": 8,
            "time_elapsed": 236655,
            "internal_node_id": "0.0-4.0-0.4",
            "response": "6"
        },
        {
            "rt": 7464.29999999702,
            "responses": "{\"affordance-response\":\"1\"}",
            "trial_part": "trial",
            "task": "affordance",
            "scale": "SENSIBILITY",
            "item_type": "critical",
            "item_id": "1_nonafforded",
            "item": 1,
            "version": "b",
            "condition": "nonafforded",
            "trial_type": "survey-html-form",
            "trial_index": 9,
            "time_elapsed": 244621,
            "internal_node_id": "0.0-4.0-0.5",
            "response": "1"
        },
        {
            "rt": 10992.89999999851,
            "responses": "{\"affordance-response\":\"4\"}",
            "trial_part": "trial",
            "task": "affordance",
            "scale": "SENSIBILITY",
            "item_type": "critical",
            "item_id": "8_afforded",
            "item": 8,
            "version": "c",
            "condition": "afforded",
            "trial_type": "survey-html-form",
            "trial_index": 10,
            "time_elapsed": 256117,
            "internal_node_id": "0.0-4.0-0.6",
            "response": "4"
        },
        {
            "rt": 7509.29999999702,
            "responses": "{\"affordance-response\":\"6\"}",
            "trial_part": "trial",
            "task": "affordance",
            "scale": "SENSIBILITY",
            "item_type": "critical",
            "item_id": "9_afforded",
            "item": 9,
            "version": "b",
            "condition": "afforded",
            "trial_type": "survey-html-form",
            "trial_index": 11,
            "time_elapsed": 264131,
            "internal_node_id": "0.0-4.0-0.7",
            "response": "6"
        },
        {
            "rt": 14746.69999999553,
            "responses": "{\"affordance-response\":\"7\"}",
            "trial_part": "trial",
            "task": "affordance",
            "scale": "SENSIBILITY",
            "item_type": "critical",
            "item_id": "7_related",
            "item": 7,
            "version": "c",
            "condition": "related",
            "trial_type": "survey-html-form",
            "trial_index": 12,
            "time_elapsed": 279385,
            "internal_node_id": "0.0-4.0-0.8",
            "response": "7"
        },
        {
            "rt": 10069.10000000149,
            "responses": "{\"affordance-response\":\"7\"}",
            "trial_part": "trial",
            "task": "affordance",
            "scale": "SENSIBILITY",
            "item_type": "critical",
            "item_id": "5_related",
            "item": 5,
            "version": "c",
            "condition": "related",
            "trial_type": "survey-html-form",
            "trial_index": 13,
            "time_elapsed": 289956,
            "internal_node_id": "0.0-4.0-0.9",
            "response": "7"
        },
        {
            "rt": 25168.29999999702,
            "responses": "{\"affordance-response\":\"7\"}",
            "trial_part": "trial",
            "task": "affordance",
            "scale": "SENSIBILITY",
            "item_type": "critical",
            "item_id": "15_related",
            "item": 15,
            "version": "b",
            "condition": "related",
            "trial_type": "survey-html-form",
            "trial_index": 14,
            "time_elapsed": 315629,
            "internal_node_id": "0.0-4.0-0.10",
            "response": "7"
        },
        {
            "rt": 12763.60000000149,
            "responses": "{\"affordance-response\":\"2\"}",
            "trial_part": "trial",
            "task": "affordance",
            "scale": "SENSIBILITY",
            "item_type": "critical",
            "item_id": "10_nonafforded",
            "item": 10,
            "version": "c",
            "condition": "nonafforded",
            "trial_type": "survey-html-form",
            "trial_index": 15,
            "time_elapsed": 328899,
            "internal_node_id": "0.0-4.0-0.11",
            "response": "2"
        },
        {
            "rt": 10297,
            "responses": "{\"affordance-response\":\"2\"}",
            "trial_part": "trial",
            "task": "affordance",
            "scale": "SENSIBILITY",
            "item_type": "critical",
            "item_id": "12_nonafforded",
            "item": 12,
            "version": "b",
            "condition": "nonafforded",
            "trial_type": "survey-html-form",
            "trial_index": 16,
            "time_elapsed": 339700,
            "internal_node_id": "0.0-4.0-0.12",
            "response": "2"
        },
        {
            "rt": 8835.90000000596,
            "responses": "{\"affordance-response\":\"6\"}",
            "trial_part": "trial",
            "task": "affordance",
            "scale": "SENSIBILITY",
            "item_type": "critical",
            "item_id": "11_related",
            "item": 11,
            "version": "b",
            "condition": "related",
            "trial_type": "survey-html-form",
            "trial_index": 17,
            "time_elapsed": 349038,
            "internal_node_id": "0.0-4.0-0.13",
            "response": "6"
        },
        {
            "rt": 12303.29999999702,
            "responses": "{\"affordance-response\":\"6\"}",
            "trial_part": "trial",
            "task": "affordance",
            "scale": "SENSIBILITY",
            "item_type": "critical",
            "item_id": "6_afforded",
            "item": 6,
            "version": "a",
            "condition": "afforded",
            "trial_type": "survey-html-form",
            "trial_index": 18,
            "time_elapsed": 361848,
            "internal_node_id": "0.0-4.0-0.14",
            "response": "6"
        },
        {
            "rt": 16457.20000000298,
            "responses": "{\"affordance-response\":\"7\"}",
            "trial_part": "trial",
            "task": "affordance",
            "scale": "SENSIBILITY",
            "item_type": "critical",
            "item_id": "17_afforded",
            "item": 17,
            "version": "b",
            "condition": "afforded",
            "trial_type": "survey-html-form",
            "trial_index": 19,
            "time_elapsed": 378808,
            "internal_node_id": "0.0-4.0-0.15",
            "response": "7"
        },
        {
            "rt": 7767.89999999851,
            "responses": "{\"affordance-response\":\"6\"}",
            "trial_part": "trial",
            "task": "affordance",
            "scale": "SENSIBILITY",
            "item_type": "critical",
            "item_id": "16_afforded",
            "item": 16,
            "version": "a",
            "condition": "afforded",
            "trial_type": "survey-html-form",
            "trial_index": 20,
            "time_elapsed": 387083,
            "internal_node_id": "0.0-4.0-0.16",
            "response": "6"
        },
        {
            "rt": 3330.1999999955297,
            "responses": "{\"affordance-response\":\"7\"}",
            "trial_part": "trial",
            "task": "affordance",
            "scale": "SENSIBILITY",
            "item_type": "critical",
            "item_id": "14_related",
            "item": 14,
            "version": "a",
            "condition": "related",
            "trial_type": "survey-html-form",
            "trial_index": 21,
            "time_elapsed": 390915,
            "internal_node_id": "0.0-4.0-0.17",
            "response": "7"
        },
        {
            "rt": 2889.1999999955297,
            "stimulus": "\n  <div class='instructions-container'>\n    <h2 class='instructions-header'>\n      Segment Complete\n    </h2>\n    <p class='instructions'>\n      That concludes the sentence completion segment of the experiment.\n      Press the spacebar to continue to the next segment.\n    </p>\n  </div>",
            "key_press": 32,
            "trial_type": "html-keyboard-response",
            "trial_index": 22,
            "time_elapsed": 394310,
            "internal_node_id": "0.0-5.0"
        },
        {
            "rt": 27700.5,
            "stimulus": "\n  <div class='instructions-container'>\n    <h2 class='instructions-header'>\n      Statement Rating Task\n    </h2>\n    <p class='instructions'>\n      In this task, you will be asked to read statements about how you\n      think and rate the statements based on how much you agree with them.\n    </p>\n\n    <p class='instructions'>\n      Each statement will appear on the screen one at a time.\n      Below the statement, you will see a 5 point scale for rating the \n      sentences. The scale goes from 1 (Strongly Disagree) to 5 \n      (Strongly Agree).\n      Click on the scale to indicate your rating and then click the\n      continue button to procede.\n    </p>\n\n    <p class='instructions' id='continue' ontouchstart=\"response(32)\">\n      <b>Press the spacebar to begin this segment.</b>\n    </p>\n  </div>",
            "key_press": 32,
            "trial_type": "html-keyboard-response",
            "trial_index": 23,
            "time_elapsed": 422513,
            "internal_node_id": "0.0-6.0"
        },
        {
            "rt": 5075.39999999851,
            "responses": "{\"irq-response\":\"4\"}",
            "trial_part": "trial",
            "task": "irq",
            "scale": "IRQ",
            "item_id": 35,
            "item": 35,
            "item_type": "critical",
            "trial_type": "survey-html-form",
            "trial_index": 24,
            "time_elapsed": 428090,
            "internal_node_id": "0.0-7.0-0.0",
            "response": "4"
        },
        {
            "rt": 9877.10000000149,
            "responses": "{\"irq-response\":\"5\"}",
            "trial_part": "trial",
            "task": "irq",
            "scale": "IRQ",
            "item_id": 13,
            "item": 13,
            "item_type": "critical",
            "trial_type": "survey-html-form",
            "trial_index": 25,
            "time_elapsed": 438470,
            "internal_node_id": "0.0-7.0-0.1",
            "response": "5"
        },
        {
            "rt": 15716.20000000298,
            "responses": "{\"irq-response\":\"2\"}",
            "trial_part": "trial",
            "task": "irq",
            "scale": "IRQ",
            "item_id": 10,
            "item": 10,
            "item_type": "critical",
            "trial_type": "survey-html-form",
            "trial_index": 26,
            "time_elapsed": 454689,
            "internal_node_id": "0.0-7.0-0.2",
            "response": "2"
        },
        {
            "rt": 27354.89999999851,
            "responses": "{\"irq-response\":\"2\"}",
            "trial_part": "trial",
            "task": "irq",
            "scale": "IRQ",
            "item_id": 4,
            "item": 4,
            "item_type": "critical",
            "trial_type": "survey-html-form",
            "trial_index": 27,
            "time_elapsed": 482548,
            "internal_node_id": "0.0-7.0-0.3",
            "response": "2"
        },
        {
            "rt": 16414.10000000149,
            "responses": "{\"irq-response\":\"2\"}",
            "trial_part": "trial",
            "task": "irq",
            "scale": "IRQ",
            "item_id": 7,
            "item": 7,
            "item_type": "critical",
            "trial_type": "survey-html-form",
            "trial_index": 28,
            "time_elapsed": 499466,
            "internal_node_id": "0.0-7.0-0.4",
            "response": "2"
        },
        {
            "rt": 9229.79999999702,
            "responses": "{\"irq-response\":\"5\"}",
            "trial_part": "trial",
            "task": "irq",
            "scale": "IRQ",
            "item_id": 28,
            "item": 28,
            "item_type": "critical",
            "trial_type": "survey-html-form",
            "trial_index": 29,
            "time_elapsed": 509204,
            "internal_node_id": "0.0-7.0-0.5",
            "response": "5"
        },
        {
            "rt": 26414.39999999851,
            "responses": "{\"irq-response\":\"1\"}",
            "trial_part": "trial",
            "task": "irq",
            "scale": "IRQ",
            "item_id": 19,
            "item": 19,
            "item_type": "critical",
            "trial_type": "survey-html-form",
            "trial_index": 30,
            "time_elapsed": 536121,
            "internal_node_id": "0.0-7.0-0.6",
            "response": "1"
        },
        {
            "rt": 3496.3000000044703,
            "responses": "{\"irq-response\":\"3\"}",
            "trial_part": "trial",
            "task": "irq",
            "scale": "IRQ",
            "item_id": 32,
            "item": 32,
            "item_type": "critical",
            "trial_type": "survey-html-form",
            "trial_index": 31,
            "time_elapsed": 540119,
            "internal_node_id": "0.0-7.0-0.7",
            "response": "3"
        },
        {
            "rt": 3470.60000000149,
            "responses": "{\"irq-response\":\"1\"}",
            "trial_part": "trial",
            "task": "irq",
            "scale": "IRQ",
            "item_id": 37,
            "item": 37,
            "item_type": "filler",
            "trial_type": "survey-html-form",
            "trial_index": 32,
            "time_elapsed": 544094,
            "internal_node_id": "0.0-7.0-0.8",
            "response": "1"
        },
        {
            "rt": 8250.10000000149,
            "responses": "{\"irq-response\":\"4\"}",
            "trial_part": "trial",
            "task": "irq",
            "scale": "IRQ",
            "item_id": 14,
            "item": 14,
            "item_type": "critical",
            "trial_type": "survey-html-form",
            "trial_index": 33,
            "time_elapsed": 552848,
            "internal_node_id": "0.0-7.0-0.9",
            "response": "4"
        },
        {
            "rt": 2382.60000000149,
            "responses": "{\"irq-response\":\"5\"}",
            "trial_part": "trial",
            "task": "irq",
            "scale": "IRQ",
            "item_id": 38,
            "item": 38,
            "item_type": "filler",
            "trial_type": "survey-html-form",
            "trial_index": 34,
            "time_elapsed": 555732,
            "internal_node_id": "0.0-7.0-0.10",
            "response": "5"
        },
        {
            "rt": 29061.39999999851,
            "responses": "{\"irq-response\":\"4\"}",
            "trial_part": "trial",
            "task": "irq",
            "scale": "IRQ",
            "item_id": 12,
            "item": 12,
            "item_type": "critical",
            "trial_type": "survey-html-form",
            "trial_index": 35,
            "time_elapsed": 585299,
            "internal_node_id": "0.0-7.0-0.11",
            "response": "4"
        },
        {
            "rt": 14133.5,
            "responses": "{\"irq-response\":\"5\"}",
            "trial_part": "trial",
            "task": "irq",
            "scale": "IRQ",
            "item_id": 18,
            "item": 18,
            "item_type": "critical",
            "trial_type": "survey-html-form",
            "trial_index": 36,
            "time_elapsed": 599937,
            "internal_node_id": "0.0-7.0-0.12",
            "response": "5"
        },
        {
            "rt": 4124.5,
            "responses": "{\"irq-response\":\"1\"}",
            "trial_part": "trial",
            "task": "irq",
            "scale": "IRQ",
            "item_id": 25,
            "item": 25,
            "item_type": "critical",
            "trial_type": "survey-html-form",
            "trial_index": 37,
            "time_elapsed": 604567,
            "internal_node_id": "0.0-7.0-0.13",
            "response": "1"
        },
        {
            "rt": 8673.69999999553,
            "responses": "{\"irq-response\":\"3\"}",
            "trial_part": "trial",
            "task": "irq",
            "scale": "IRQ",
            "item_id": 29,
            "item": 29,
            "item_type": "critical",
            "trial_type": "survey-html-form",
            "trial_index": 38,
            "time_elapsed": 613743,
            "internal_node_id": "0.0-7.0-0.14",
            "response": "3"
        },
        {
            "rt": 6696.79999999702,
            "responses": "{\"irq-response\":\"4\"}",
            "trial_part": "trial",
            "task": "irq",
            "scale": "IRQ",
            "item_id": 1,
            "item": 1,
            "item_type": "critical",
            "trial_type": "survey-html-form",
            "trial_index": 39,
            "time_elapsed": 620945,
            "internal_node_id": "0.0-7.0-0.15",
            "response": "4"
        },
        {
            "rt": 3085.5,
            "responses": "{\"irq-response\":\"5\"}",
            "trial_part": "trial",
            "task": "irq",
            "scale": "IRQ",
            "item_id": 22,
            "item": 22,
            "item_type": "critical",
            "trial_type": "survey-html-form",
            "trial_index": 40,
            "time_elapsed": 624538,
            "internal_node_id": "0.0-7.0-0.16",
            "response": "5"
        },
        {
            "rt": 4507.4000000059605,
            "responses": "{\"irq-response\":\"2\"}",
            "trial_part": "trial",
            "task": "irq",
            "scale": "IRQ",
            "item_id": 23,
            "item": 23,
            "item_type": "critical",
            "trial_type": "survey-html-form",
            "trial_index": 41,
            "time_elapsed": 629550,
            "internal_node_id": "0.0-7.0-0.17",
            "response": "2"
        },
        {
            "rt": 17846.30000000447,
            "responses": "{\"irq-response\":\"3\"}",
            "trial_part": "trial",
            "task": "irq",
            "scale": "IRQ",
            "item_id": 9,
            "item": 9,
            "item_type": "critical",
            "trial_type": "survey-html-form",
            "trial_index": 42,
            "time_elapsed": 647901,
            "internal_node_id": "0.0-7.0-0.18",
            "response": "3"
        },
        {
            "rt": 8373.89999999851,
            "responses": "{\"irq-response\":\"5\"}",
            "trial_part": "trial",
            "task": "irq",
            "scale": "IRQ",
            "item_id": 17,
            "item": 17,
            "item_type": "critical",
            "trial_type": "survey-html-form",
            "trial_index": 43,
            "time_elapsed": 656780,
            "internal_node_id": "0.0-7.0-0.19",
            "response": "5"
        },
        {
            "rt": 7959.19999999553,
            "responses": "{\"irq-response\":\"3\"}",
            "trial_part": "trial",
            "task": "irq",
            "scale": "IRQ",
            "item_id": 34,
            "item": 34,
            "item_type": "critical",
            "trial_type": "survey-html-form",
            "trial_index": 44,
            "time_elapsed": 665241,
            "internal_node_id": "0.0-7.0-0.20",
            "response": "3"
        },
        {
            "rt": 2172.89999999851,
            "responses": "{\"irq-response\":\"1\"}",
            "trial_part": "trial",
            "task": "irq",
            "scale": "IRQ",
            "item_id": 39,
            "item": 39,
            "item_type": "filler",
            "trial_type": "survey-html-form",
            "trial_index": 45,
            "time_elapsed": 667919,
            "internal_node_id": "0.0-7.0-0.21",
            "response": "1"
        },
        {
            "rt": 25029.40000000596,
            "responses": "{\"irq-response\":\"3\"}",
            "trial_part": "trial",
            "task": "irq",
            "scale": "IRQ",
            "item_id": 31,
            "item": 31,
            "item_type": "critical",
            "trial_type": "survey-html-form",
            "trial_index": 46,
            "time_elapsed": 693451,
            "internal_node_id": "0.0-7.0-0.22",
            "response": "3"
        },
        {
            "rt": 5035,
            "responses": "{\"irq-response\":\"4\"}",
            "trial_part": "trial",
            "task": "irq",
            "scale": "IRQ",
            "item_id": 36,
            "item": 36,
            "item_type": "critical",
            "trial_type": "survey-html-form",
            "trial_index": 47,
            "time_elapsed": 698987,
            "internal_node_id": "0.0-7.0-0.23",
            "response": "4"
        },
        {
            "rt": 18677.5,
            "responses": "{\"irq-response\":\"2\"}",
            "trial_part": "trial",
            "task": "irq",
            "scale": "IRQ",
            "item_id": 6,
            "item": 6,
            "item_type": "critical",
            "trial_type": "survey-html-form",
            "trial_index": 48,
            "time_elapsed": 718168,
            "internal_node_id": "0.0-7.0-0.24",
            "response": "2"
        },
        {
            "rt": 64986.90000000596,
            "responses": "{\"irq-response\":\"4\"}",
            "trial_part": "trial",
            "task": "irq",
            "scale": "IRQ",
            "item_id": 27,
            "item": 27,
            "item_type": "critical",
            "trial_type": "survey-html-form",
            "trial_index": 49,
            "time_elapsed": 783660,
            "internal_node_id": "0.0-7.0-0.25",
            "response": "4"
        },
        {
            "rt": 9442.79999999702,
            "responses": "{\"irq-response\":\"3\"}",
            "trial_part": "trial",
            "task": "irq",
            "scale": "IRQ",
            "item_id": 5,
            "item": 5,
            "item_type": "critical",
            "trial_type": "survey-html-form",
            "trial_index": 50,
            "time_elapsed": 793608,
            "internal_node_id": "0.0-7.0-0.26",
            "response": "3"
        },
        {
            "rt": 6678.89999999851,
            "responses": "{\"irq-response\":\"4\"}",
            "trial_part": "trial",
            "task": "irq",
            "scale": "IRQ",
            "item_id": 11,
            "item": 11,
            "item_type": "critical",
            "trial_type": "survey-html-form",
            "trial_index": 51,
            "time_elapsed": 800794,
            "internal_node_id": "0.0-7.0-0.27",
            "response": "4"
        },
        {
            "rt": 13611.40000000596,
            "responses": "{\"irq-response\":\"4\"}",
            "trial_part": "trial",
            "task": "irq",
            "scale": "IRQ",
            "item_id": 15,
            "item": 15,
            "item_type": "critical",
            "trial_type": "survey-html-form",
            "trial_index": 52,
            "time_elapsed": 814913,
            "internal_node_id": "0.0-7.0-0.28",
            "response": "4"
        },
        {
            "rt": 3775.89999999851,
            "responses": "{\"irq-response\":\"5\"}",
            "trial_part": "trial",
            "task": "irq",
            "scale": "IRQ",
            "item_id": 21,
            "item": 21,
            "item_type": "critical",
            "trial_type": "survey-html-form",
            "trial_index": 53,
            "time_elapsed": 819191,
            "internal_node_id": "0.0-7.0-0.29",
            "response": "5"
        },
        {
            "rt": 4995.69999999553,
            "responses": "{\"irq-response\":\"4\"}",
            "trial_part": "trial",
            "task": "irq",
            "scale": "IRQ",
            "item_id": 20,
            "item": 20,
            "item_type": "critical",
            "trial_type": "survey-html-form",
            "trial_index": 54,
            "time_elapsed": 824689,
            "internal_node_id": "0.0-7.0-0.30",
            "response": "4"
        },
        {
            "rt": 2834.5,
            "responses": "{\"irq-response\":\"3\"}",
            "trial_part": "trial",
            "task": "irq",
            "scale": "IRQ",
            "item_id": 3,
            "item": 3,
            "item_type": "critical",
            "trial_type": "survey-html-form",
            "trial_index": 55,
            "time_elapsed": 828026,
            "internal_node_id": "0.0-7.0-0.31",
            "response": "3"
        },
        {
            "rt": 6445.60000000149,
            "responses": "{\"irq-response\":\"5\"}",
            "trial_part": "trial",
            "task": "irq",
            "scale": "IRQ",
            "item_id": 16,
            "item": 16,
            "item_type": "critical",
            "trial_type": "survey-html-form",
            "trial_index": 56,
            "time_elapsed": 834980,
            "internal_node_id": "0.0-7.0-0.32",
            "response": "5"
        },
        {
            "rt": 6434.79999999702,
            "responses": "{\"irq-response\":\"2\"}",
            "trial_part": "trial",
            "task": "irq",
            "scale": "IRQ",
            "item_id": 8,
            "item": 8,
            "item_type": "critical",
            "trial_type": "survey-html-form",
            "trial_index": 57,
            "time_elapsed": 841917,
            "internal_node_id": "0.0-7.0-0.33",
            "response": "2"
        },
        {
            "rt": 15885,
            "responses": "{\"irq-response\":\"2\"}",
            "trial_part": "trial",
            "task": "irq",
            "scale": "IRQ",
            "item_id": 26,
            "item": 26,
            "item_type": "critical",
            "trial_type": "survey-html-form",
            "trial_index": 58,
            "time_elapsed": 858305,
            "internal_node_id": "0.0-7.0-0.34",
            "response": "2"
        },
        {
            "rt": 8005.79999999702,
            "responses": "{\"irq-response\":\"5\"}",
            "trial_part": "trial",
            "task": "irq",
            "scale": "IRQ",
            "item_id": 30,
            "item": 30,
            "item_type": "critical",
            "trial_type": "survey-html-form",
            "trial_index": 59,
            "time_elapsed": 866813,
            "internal_node_id": "0.0-7.0-0.35",
            "response": "5"
        },
        {
            "rt": 10388.60000000149,
            "responses": "{\"irq-response\":\"2\"}",
            "trial_part": "trial",
            "task": "irq",
            "scale": "IRQ",
            "item_id": 24,
            "item": 24,
            "item_type": "critical",
            "trial_type": "survey-html-form",
            "trial_index": 60,
            "time_elapsed": 877705,
            "internal_node_id": "0.0-7.0-0.36",
            "response": "2"
        },
        {
            "rt": 9926.89999999851,
            "responses": "{\"irq-response\":\"3\"}",
            "trial_part": "trial",
            "task": "irq",
            "scale": "IRQ",
            "item_id": 33,
            "item": 33,
            "item_type": "critical",
            "trial_type": "survey-html-form",
            "trial_index": 61,
            "time_elapsed": 888135,
            "internal_node_id": "0.0-7.0-0.37",
            "response": "3"
        },
        {
            "rt": 6866.20000000298,
            "responses": "{\"irq-response\":\"4\"}",
            "trial_part": "trial",
            "task": "irq",
            "scale": "IRQ",
            "item_id": 2,
            "item": 2,
            "item_type": "critical",
            "trial_type": "survey-html-form",
            "trial_index": 62,
            "time_elapsed": 895507,
            "internal_node_id": "0.0-7.0-0.38",
            "response": "4"
        },
        {
            "rt": 1443.1999999955297,
            "stimulus": "\n  <div class='instructions-container'>\n    <h2 class='instructions-header'>\n      Segment Complete\n    </h2>\n    <p class='instructions'>\n      That concludes this segment of the experiment.\n      Press the spacebar to continue to the next segment.\n    </p>\n  </div>",
            "key_press": 32,
            "trial_type": "html-keyboard-response",
            "trial_index": 63,
            "time_elapsed": 897457,
            "internal_node_id": "0.0-8.0"
        },
        {
            "rt": 21770.60000000149,
            "stimulus": "\n  <div class='instructions-container'>\n    <h2 class='instructions-header'>\n      Object Matching Task\n    </h2>\n    <p class='instructions'>\n      In this task, you will see images of two objects side-by-side.\n      Sometimes, the image on the right will show the same object as\n      the image on the left but from a different angle. In this case,\n      the object on the right could be rotated to match the image on\n      the left. In other cases, the images will show different objects,\n      so that the objects cannot be rotated to match. Your task is to\n      decide whether or not the objects are the same (i.e. they can\n      be rotated to match).\n    </p>\n\n    <p class='instructions'>\n      Use the keyboard to give your answer.\n      If the objects can be rotated to match, press the\n      <span class='key-demo'>j</span> key. If they can't, press the\n      <span class='key-demo'>f</span> key.\n      Try to respond as quickly and accurately as possible.\n    </p>\n\n\n    <p class='instructions' id='continue' ontouchstart=\"response(32)\">\n      <b>Press the spacebar to continue to an example.</b>\n    </p>\n  </div>",
            "key_press": 32,
            "trial_type": "html-keyboard-response",
            "trial_index": 64,
            "time_elapsed": 919730,
            "internal_node_id": "0.0-9.0"
        },
        {
            "rt": 6122.10000000149,
            "stimulus": "\n  <div class='instructions-container'>\n    <h2 class='instructions-header'>\n      Object Matching Task | Example 1\n    </h2>\n    <p class='instructions'>\n      For example, if you saw the following pair of objects, \n      you would press <span class='key-demo'>j</span> key, because\n      the objects can be rotated to match.\n    </p>\n\n    <div class='mr-img-container'>\n      <img class=\"mr-img\" src=\"/static/affordances/mental_rotation/1_50.jpg\">\n    </div>\n\n    <p class='instructions' id='continue' ontouchstart=\"response(32)\">\n      <b>Press the spacebar to continue.</b>\n    </p>\n  </div>",
            "key_press": 32,
            "trial_type": "html-keyboard-response",
            "trial_index": 65,
            "time_elapsed": 926354,
            "internal_node_id": "0.0-10.0"
        },
        {
            "rt": 3821.7000000029802,
            "stimulus": "\n  <div class='instructions-container'>\n    <h2 class='instructions-header'>\n      Object Matching Task | Example 2\n    </h2>\n    <p class='instructions'>\n      However, in this example, the objects cannot be rotated to match, \n      so you would press the <span class='key-demo'>f</span> key.\n    </p>\n\n    <div class='mr-img-container'>\n      <img class=\"mr-img\" src=\"/static/affordances/mental_rotation/1_0_R.jpg\">\n    </div>\n\n    <p class='instructions' id='continue' ontouchstart=\"response(32)\">\n      <b>Press the spacebar to continue.</b>\n    </p>\n  </div>",
            "key_press": 32,
            "trial_type": "html-keyboard-response",
            "trial_index": 66,
            "time_elapsed": 930678,
            "internal_node_id": "0.0-11.0"
        },
        {
            "rt": 2936.3000000044703,
            "stimulus": "\n  <div class='instructions-container'>\n    <h2 class='instructions-header'>\n      Begin Task\n    </h2>\n\n    <p class='instructions c'>\n      The task will begin on the next page.\n    </p>\n\n    <p class='instructions' id='continue' ontouchstart=\"response(32)\">\n      <b>Press the spacebar to continue.</b>\n    </p>\n  </div>",
            "key_press": 32,
            "trial_type": "html-keyboard-response",
            "trial_index": 67,
            "time_elapsed": 934117,
            "internal_node_id": "0.0-12.0"
        },
        {
            "rt": 2166.5,
            "stimulus": "<div class='mr-container'>\n\n           <div class='mr-img-container'>\n              <img class=\"mr-img\" src=\"/static/affordances/mental_rotation/18_100_R.jpg\">\n           </div>\n\n           <div class='mr-keyhint-container'>\n\n              <div class='mr-keyhint'>\n                <p class='mr-keyhint-label'>\n                  No match: <span class='key-demo'>f</span>\n                </p>\n              </div>\n\n              <div class='mr-keyhint'>\n                <p class='mr-keyhint-label'>\n                  Match: <span class='key-demo'>j</span>\n                </p>\n              </div>\n\n           </div>\n\n        </div>",
            "key_press": 70,
            "trial_part": "trial",
            "task": "MR",
            "item_id": "18_100_R",
            "item": 18,
            "item_type": "critical",
            "condition": true,
            "version": 100,
            "correct_response": false,
            "trial_type": "html-keyboard-response",
            "trial_index": 68,
            "time_elapsed": 936785,
            "internal_node_id": "0.0-13.0-0.0",
            "response": false,
            "is_correct": true
        },
        {
            "rt": 1271.1999999955297,
            "stimulus": "<div class='mr-container'>\n\n           <div class='mr-img-container'>\n              <img class=\"mr-img\" src=\"/static/affordances/mental_rotation/11_100.jpg\">\n           </div>\n\n           <div class='mr-keyhint-container'>\n\n              <div class='mr-keyhint'>\n                <p class='mr-keyhint-label'>\n                  No match: <span class='key-demo'>f</span>\n                </p>\n              </div>\n\n              <div class='mr-keyhint'>\n                <p class='mr-keyhint-label'>\n                  Match: <span class='key-demo'>j</span>\n                </p>\n              </div>\n\n           </div>\n\n        </div>",
            "key_press": 74,
            "trial_part": "trial",
            "task": "MR",
            "item_id": "11_100",
            "item": 11,
            "item_type": "critical",
            "condition": false,
            "version": 100,
            "correct_response": true,
            "trial_type": "html-keyboard-response",
            "trial_index": 69,
            "time_elapsed": 938558,
            "internal_node_id": "0.0-13.0-0.1",
            "response": true,
            "is_correct": true
        },
        {
            "rt": 2141.1999999955297,
            "stimulus": "<div class='mr-container'>\n\n           <div class='mr-img-container'>\n              <img class=\"mr-img\" src=\"/static/affordances/mental_rotation/2_100.jpg\">\n           </div>\n\n           <div class='mr-keyhint-container'>\n\n              <div class='mr-keyhint'>\n                <p class='mr-keyhint-label'>\n                  No match: <span class='key-demo'>f</span>\n                </p>\n              </div>\n\n              <div class='mr-keyhint'>\n                <p class='mr-keyhint-label'>\n                  Match: <span class='key-demo'>j</span>\n                </p>\n              </div>\n\n           </div>\n\n        </div>",
            "key_press": 74,
            "trial_part": "trial",
            "task": "MR",
            "item_id": "2_100",
            "item": 2,
            "item_type": "critical",
            "condition": false,
            "version": 100,
            "correct_response": true,
            "trial_type": "html-keyboard-response",
            "trial_index": 70,
            "time_elapsed": 941204,
            "internal_node_id": "0.0-13.0-0.2",
            "response": true,
            "is_correct": true
        },
        {
            "rt": 1508.1000000014901,
            "stimulus": "<div class='mr-container'>\n\n           <div class='mr-img-container'>\n              <img class=\"mr-img\" src=\"/static/affordances/mental_rotation/20_150.jpg\">\n           </div>\n\n           <div class='mr-keyhint-container'>\n\n              <div class='mr-keyhint'>\n                <p class='mr-keyhint-label'>\n                  No match: <span class='key-demo'>f</span>\n                </p>\n              </div>\n\n              <div class='mr-keyhint'>\n                <p class='mr-keyhint-label'>\n                  Match: <span class='key-demo'>j</span>\n                </p>\n              </div>\n\n           </div>\n\n        </div>",
            "key_press": 70,
            "trial_part": "trial",
            "task": "MR",
            "item_id": "20_150",
            "item": 20,
            "item_type": "critical",
            "condition": false,
            "version": 150,
            "correct_response": true,
            "trial_type": "html-keyboard-response",
            "trial_index": 71,
            "time_elapsed": 943218,
            "internal_node_id": "0.0-13.0-0.3",
            "response": false,
            "is_correct": false
        },
        {
            "rt": 1157,
            "stimulus": "<div class='mr-container'>\n\n           <div class='mr-img-container'>\n              <img class=\"mr-img\" src=\"/static/affordances/mental_rotation/5_0_R.jpg\">\n           </div>\n\n           <div class='mr-keyhint-container'>\n\n              <div class='mr-keyhint'>\n                <p class='mr-keyhint-label'>\n                  No match: <span class='key-demo'>f</span>\n                </p>\n              </div>\n\n              <div class='mr-keyhint'>\n                <p class='mr-keyhint-label'>\n                  Match: <span class='key-demo'>j</span>\n                </p>\n              </div>\n\n           </div>\n\n        </div>",
            "key_press": 70,
            "trial_part": "trial",
            "task": "MR",
            "item_id": "5_0_R",
            "item": 5,
            "item_type": "critical",
            "condition": true,
            "version": 0,
            "correct_response": false,
            "trial_type": "html-keyboard-response",
            "trial_index": 72,
            "time_elapsed": 944876,
            "internal_node_id": "0.0-13.0-0.4",
            "response": false,
            "is_correct": true
        },
        {
            "rt": 812.1999999955297,
            "stimulus": "<div class='mr-container'>\n\n           <div class='mr-img-container'>\n              <img class=\"mr-img\" src=\"/static/affordances/mental_rotation/4_0.jpg\">\n           </div>\n\n           <div class='mr-keyhint-container'>\n\n              <div class='mr-keyhint'>\n                <p class='mr-keyhint-label'>\n                  No match: <span class='key-demo'>f</span>\n                </p>\n              </div>\n\n              <div class='mr-keyhint'>\n                <p class='mr-keyhint-label'>\n                  Match: <span class='key-demo'>j</span>\n                </p>\n              </div>\n\n           </div>\n\n        </div>",
            "key_press": 74,
            "trial_part": "trial",
            "task": "MR",
            "item_id": "4_0",
            "item": 4,
            "item_type": "filler",
            "condition": false,
            "version": 0,
            "correct_response": true,
            "trial_type": "html-keyboard-response",
            "trial_index": 73,
            "time_elapsed": 946192,
            "internal_node_id": "0.0-13.0-0.5",
            "response": true,
            "is_correct": true
        },
        {
            "rt": 2394.39999999851,
            "stimulus": "<div class='mr-container'>\n\n           <div class='mr-img-container'>\n              <img class=\"mr-img\" src=\"/static/affordances/mental_rotation/5_150_R.jpg\">\n           </div>\n\n           <div class='mr-keyhint-container'>\n\n              <div class='mr-keyhint'>\n                <p class='mr-keyhint-label'>\n                  No match: <span class='key-demo'>f</span>\n                </p>\n              </div>\n\n              <div class='mr-keyhint'>\n                <p class='mr-keyhint-label'>\n                  Match: <span class='key-demo'>j</span>\n                </p>\n              </div>\n\n           </div>\n\n        </div>",
            "key_press": 70,
            "trial_part": "trial",
            "task": "MR",
            "item_id": "5_150_R",
            "item": 5,
            "item_type": "critical",
            "condition": true,
            "version": 150,
            "correct_response": false,
            "trial_type": "html-keyboard-response",
            "trial_index": 74,
            "time_elapsed": 949092,
            "internal_node_id": "0.0-13.0-0.6",
            "response": false,
            "is_correct": true
        },
        {
            "rt": 1718.5,
            "stimulus": "<div class='mr-container'>\n\n           <div class='mr-img-container'>\n              <img class=\"mr-img\" src=\"/static/affordances/mental_rotation/10_50_R.jpg\">\n           </div>\n\n           <div class='mr-keyhint-container'>\n\n              <div class='mr-keyhint'>\n                <p class='mr-keyhint-label'>\n                  No match: <span class='key-demo'>f</span>\n                </p>\n              </div>\n\n              <div class='mr-keyhint'>\n                <p class='mr-keyhint-label'>\n                  Match: <span class='key-demo'>j</span>\n                </p>\n              </div>\n\n           </div>\n\n        </div>",
            "key_press": 70,
            "trial_part": "trial",
            "task": "MR",
            "item_id": "10_50_R",
            "item": 10,
            "item_type": "critical",
            "condition": true,
            "version": 50,
            "correct_response": false,
            "trial_type": "html-keyboard-response",
            "trial_index": 75,
            "time_elapsed": 951312,
            "internal_node_id": "0.0-13.0-0.7",
            "response": false,
            "is_correct": true
        },
        {
            "rt": 1771.8999999985099,
            "stimulus": "<div class='mr-container'>\n\n           <div class='mr-img-container'>\n              <img class=\"mr-img\" src=\"/static/affordances/mental_rotation/35_50.jpg\">\n           </div>\n\n           <div class='mr-keyhint-container'>\n\n              <div class='mr-keyhint'>\n                <p class='mr-keyhint-label'>\n                  No match: <span class='key-demo'>f</span>\n                </p>\n              </div>\n\n              <div class='mr-keyhint'>\n                <p class='mr-keyhint-label'>\n                  Match: <span class='key-demo'>j</span>\n                </p>\n              </div>\n\n           </div>\n\n        </div>",
            "key_press": 74,
            "trial_part": "trial",
            "task": "MR",
            "item_id": "35_50",
            "item": 35,
            "item_type": "critical",
            "condition": false,
            "version": 50,
            "correct_response": true,
            "trial_type": "html-keyboard-response",
            "trial_index": 76,
            "time_elapsed": 953590,
            "internal_node_id": "0.0-13.0-0.8",
            "response": true,
            "is_correct": true
        },
        {
            "rt": 2207.2999999970198,
            "stimulus": "<div class='mr-container'>\n\n           <div class='mr-img-container'>\n              <img class=\"mr-img\" src=\"/static/affordances/mental_rotation/43_0_R.jpg\">\n           </div>\n\n           <div class='mr-keyhint-container'>\n\n              <div class='mr-keyhint'>\n                <p class='mr-keyhint-label'>\n                  No match: <span class='key-demo'>f</span>\n                </p>\n              </div>\n\n              <div class='mr-keyhint'>\n                <p class='mr-keyhint-label'>\n                  Match: <span class='key-demo'>j</span>\n                </p>\n              </div>\n\n           </div>\n\n        </div>",
            "key_press": 70,
            "trial_part": "trial",
            "task": "MR",
            "item_id": "43_0_R",
            "item": 43,
            "item_type": "critical",
            "condition": true,
            "version": 0,
            "correct_response": false,
            "trial_type": "html-keyboard-response",
            "trial_index": 77,
            "time_elapsed": 956301,
            "internal_node_id": "0.0-13.0-0.9",
            "response": false,
            "is_correct": true
        },
        {
            "rt": 2209.10000000149,
            "stimulus": "<div class='mr-container'>\n\n           <div class='mr-img-container'>\n              <img class=\"mr-img\" src=\"/static/affordances/mental_rotation/2_50_R.jpg\">\n           </div>\n\n           <div class='mr-keyhint-container'>\n\n              <div class='mr-keyhint'>\n                <p class='mr-keyhint-label'>\n                  No match: <span class='key-demo'>f</span>\n                </p>\n              </div>\n\n              <div class='mr-keyhint'>\n                <p class='mr-keyhint-label'>\n                  Match: <span class='key-demo'>j</span>\n                </p>\n              </div>\n\n           </div>\n\n        </div>",
            "key_press": 70,
            "trial_part": "trial",
            "task": "MR",
            "item_id": "2_50_R",
            "item": 2,
            "item_type": "critical",
            "condition": true,
            "version": 50,
            "correct_response": false,
            "trial_type": "html-keyboard-response",
            "trial_index": 78,
            "time_elapsed": 959013,
            "internal_node_id": "0.0-13.0-0.10",
            "response": false,
            "is_correct": true
        },
        {
            "rt": 2338,
            "stimulus": "<div class='mr-container'>\n\n           <div class='mr-img-container'>\n              <img class=\"mr-img\" src=\"/static/affordances/mental_rotation/5_0.jpg\">\n           </div>\n\n           <div class='mr-keyhint-container'>\n\n              <div class='mr-keyhint'>\n                <p class='mr-keyhint-label'>\n                  No match: <span class='key-demo'>f</span>\n                </p>\n              </div>\n\n              <div class='mr-keyhint'>\n                <p class='mr-keyhint-label'>\n                  Match: <span class='key-demo'>j</span>\n                </p>\n              </div>\n\n           </div>\n\n        </div>",
            "key_press": 74,
            "trial_part": "trial",
            "task": "MR",
            "item_id": "5_0",
            "item": 5,
            "item_type": "filler",
            "condition": false,
            "version": 0,
            "correct_response": true,
            "trial_type": "html-keyboard-response",
            "trial_index": 79,
            "time_elapsed": 961853,
            "internal_node_id": "0.0-13.0-0.11",
            "response": true,
            "is_correct": true
        },
        {
            "rt": 2493.3000000044703,
            "stimulus": "<div class='mr-container'>\n\n           <div class='mr-img-container'>\n              <img class=\"mr-img\" src=\"/static/affordances/mental_rotation/9_50_R.jpg\">\n           </div>\n\n           <div class='mr-keyhint-container'>\n\n              <div class='mr-keyhint'>\n                <p class='mr-keyhint-label'>\n                  No match: <span class='key-demo'>f</span>\n                </p>\n              </div>\n\n              <div class='mr-keyhint'>\n                <p class='mr-keyhint-label'>\n                  Match: <span class='key-demo'>j</span>\n                </p>\n              </div>\n\n           </div>\n\n        </div>",
            "key_press": 70,
            "trial_part": "trial",
            "task": "MR",
            "item_id": "9_50_R",
            "item": 9,
            "item_type": "critical",
            "condition": true,
            "version": 50,
            "correct_response": false,
            "trial_type": "html-keyboard-response",
            "trial_index": 80,
            "time_elapsed": 964848,
            "internal_node_id": "0.0-13.0-0.12",
            "response": false,
            "is_correct": true
        },
        {
            "rt": 1255.2999999970198,
            "stimulus": "<div class='mr-container'>\n\n           <div class='mr-img-container'>\n              <img class=\"mr-img\" src=\"/static/affordances/mental_rotation/35_50_R.jpg\">\n           </div>\n\n           <div class='mr-keyhint-container'>\n\n              <div class='mr-keyhint'>\n                <p class='mr-keyhint-label'>\n                  No match: <span class='key-demo'>f</span>\n                </p>\n              </div>\n\n              <div class='mr-keyhint'>\n                <p class='mr-keyhint-label'>\n                  Match: <span class='key-demo'>j</span>\n                </p>\n              </div>\n\n           </div>\n\n        </div>",
            "key_press": 70,
            "trial_part": "trial",
            "task": "MR",
            "item_id": "35_50_R",
            "item": 35,
            "item_type": "critical",
            "condition": true,
            "version": 50,
            "correct_response": false,
            "trial_type": "html-keyboard-response",
            "trial_index": 81,
            "time_elapsed": 966605,
            "internal_node_id": "0.0-13.0-0.13",
            "response": false,
            "is_correct": true
        },
        {
            "rt": 1102.5,
            "stimulus": "<div class='mr-container'>\n\n           <div class='mr-img-container'>\n              <img class=\"mr-img\" src=\"/static/affordances/mental_rotation/25_0.jpg\">\n           </div>\n\n           <div class='mr-keyhint-container'>\n\n              <div class='mr-keyhint'>\n                <p class='mr-keyhint-label'>\n                  No match: <span class='key-demo'>f</span>\n                </p>\n              </div>\n\n              <div class='mr-keyhint'>\n                <p class='mr-keyhint-label'>\n                  Match: <span class='key-demo'>j</span>\n                </p>\n              </div>\n\n           </div>\n\n        </div>",
            "key_press": 74,
            "trial_part": "trial",
            "task": "MR",
            "item_id": "25_0",
            "item": 25,
            "item_type": "filler",
            "condition": false,
            "version": 0,
            "correct_response": true,
            "trial_type": "html-keyboard-response",
            "trial_index": 82,
            "time_elapsed": 968211,
            "internal_node_id": "0.0-13.0-0.14",
            "response": true,
            "is_correct": true
        },
        {
            "rt": 1510.6999999955297,
            "stimulus": "<div class='mr-container'>\n\n           <div class='mr-img-container'>\n              <img class=\"mr-img\" src=\"/static/affordances/mental_rotation/22_100.jpg\">\n           </div>\n\n           <div class='mr-keyhint-container'>\n\n              <div class='mr-keyhint'>\n                <p class='mr-keyhint-label'>\n                  No match: <span class='key-demo'>f</span>\n                </p>\n              </div>\n\n              <div class='mr-keyhint'>\n                <p class='mr-keyhint-label'>\n                  Match: <span class='key-demo'>j</span>\n                </p>\n              </div>\n\n           </div>\n\n        </div>",
            "key_press": 74,
            "trial_part": "trial",
            "task": "MR",
            "item_id": "22_100",
            "item": 22,
            "item_type": "critical",
            "condition": false,
            "version": 100,
            "correct_response": true,
            "trial_type": "html-keyboard-response",
            "trial_index": 83,
            "time_elapsed": 970227,
            "internal_node_id": "0.0-13.0-0.15",
            "response": true,
            "is_correct": true
        },
        {
            "rt": 1832.8000000044703,
            "stimulus": "<div class='mr-container'>\n\n           <div class='mr-img-container'>\n              <img class=\"mr-img\" src=\"/static/affordances/mental_rotation/37_50_R.jpg\">\n           </div>\n\n           <div class='mr-keyhint-container'>\n\n              <div class='mr-keyhint'>\n                <p class='mr-keyhint-label'>\n                  No match: <span class='key-demo'>f</span>\n                </p>\n              </div>\n\n              <div class='mr-keyhint'>\n                <p class='mr-keyhint-label'>\n                  Match: <span class='key-demo'>j</span>\n                </p>\n              </div>\n\n           </div>\n\n        </div>",
            "key_press": 70,
            "trial_part": "trial",
            "task": "MR",
            "item_id": "37_50_R",
            "item": 37,
            "item_type": "critical",
            "condition": true,
            "version": 50,
            "correct_response": false,
            "trial_type": "html-keyboard-response",
            "trial_index": 84,
            "time_elapsed": 972564,
            "internal_node_id": "0.0-13.0-0.16",
            "response": false,
            "is_correct": true
        },
        {
            "rt": 2049.89999999851,
            "stimulus": "<div class='mr-container'>\n\n           <div class='mr-img-container'>\n              <img class=\"mr-img\" src=\"/static/affordances/mental_rotation/31_50.jpg\">\n           </div>\n\n           <div class='mr-keyhint-container'>\n\n              <div class='mr-keyhint'>\n                <p class='mr-keyhint-label'>\n                  No match: <span class='key-demo'>f</span>\n                </p>\n              </div>\n\n              <div class='mr-keyhint'>\n                <p class='mr-keyhint-label'>\n                  Match: <span class='key-demo'>j</span>\n                </p>\n              </div>\n\n           </div>\n\n        </div>",
            "key_press": 74,
            "trial_part": "trial",
            "task": "MR",
            "item_id": "31_50",
            "item": 31,
            "item_type": "critical",
            "condition": false,
            "version": 50,
            "correct_response": true,
            "trial_type": "html-keyboard-response",
            "trial_index": 85,
            "time_elapsed": 975119,
            "internal_node_id": "0.0-13.0-0.17",
            "response": true,
            "is_correct": true
        },
        {
            "rt": 7874.0999999940395,
            "stimulus": "\n  <div class='instructions-container'>\n    <h2 class='instructions-header'>\n      Segment Complete\n    </h2>\n    <p class='instructions'>\n      That concludes this segment of the experiment.\n      Press the spacebar to continue to the next segment.\n    </p>\n  </div>",
            "key_press": 32,
            "trial_type": "html-keyboard-response",
            "trial_index": 86,
            "time_elapsed": 983499,
            "internal_node_id": "0.0-14.0"
        },
        {
            "rt": 39118,
            "stimulus": "\n  <div class='instructions-container'>\n    <h2 class='instructions-header'>\n      Alternative Uses Task\n    </h2>\n    <p class='instructions'>\n      In this task, you need to come up with alternative uses for a\n      common object.\n    </p>\n\n    <p class='instructions'>\n      When you begin the task, the name of the common object will\n      appear at the top of the screen. Please enter all of the\n      alternative uses you can think of for the object in the text box\n      below, separated by commas. You will have one minute to list\n      all of the uses you can think of.\n    </p>\n\n    <p class='instructions'>\n      Be inventive and try to think of a diverse range of unusual uses\n      for which the object would be appropriate. You don't have to write in full\n      sentences, just give enough information to make it clear what the\n      intended use is.\n    </p>\n\n    <p class='instructions' id='continue' ontouchstart=\"response(32)\">\n      <b>Press the spacebar to continue to an example.</b>\n    </p>\n  </div>",
            "key_press": 32,
            "trial_type": "html-keyboard-response",
            "trial_index": 87,
            "time_elapsed": 1023121,
            "internal_node_id": "0.0-15.0"
        },
        {
            "rt": 16575.60000000149,
            "stimulus": "\n  <div class='instructions-container'>\n    <h2 class='instructions-header'>\n      Example\n    </h2>\n    <p class='instructions'>\n      For example, if the object was 'a brick', you might enter the\n      following uses in the textbox like so:\n    </p>\n\n    <div class='question au'>\n\n      <div class='au-header'>\n        <div class='quesiton-title-container'>\n          <h3 class='question-title'>\n            A Brick\n          </h3>\n        </div>\n\n        <div class='countdown-container'>\n          <span id=\"countdown-label\">Time Remaining:</span><span id=\"countdown\">1:00</span>\n        </div>\n\n      </div>\n\n      <textarea class=\"textbox au\" id=\"au-response\" \n      name=\"au-response\" readonly>doorstop, paperweight, bookend, laptop stand, medicine ball, cracking nuts, support for sawing wood, practice retrieving objects from a swimming pool\n      </textarea>\n\n    </div>\n\n    <p class='instructions' id='continue' ontouchstart=\"response(32)\">\n      <b>Your time will start on the next page.\n      Press the spacebar to begin.</b>\n    </p>\n  </div>",
            "key_press": 32,
            "trial_type": "html-keyboard-response",
            "trial_index": 88,
            "time_elapsed": 1040199,
            "internal_node_id": "0.0-16.0"
        },
        {
            "rt": 62938.20000000298,
            "responses": "{\"au-response\":\"tying bags of spices closed, sewing needle, \",\"au-response-hidden\":\"\"}",
            "trial_part": "trial",
            "task": "AU",
            "item_id": "1_paperclip",
            "item": 1,
            "item_type": "critical",
            "condition": "paperclip",
            "version": "",
            "trial_type": "survey-html-form",
            "trial_index": 89,
            "time_elapsed": 1103641,
            "internal_node_id": "0.0-17.0-0.0",
            "response": "tying bags of spices closed, sewing needle, "
        },
        {
            "rt": 2259.2000000029802,
            "stimulus": "\n  <div class='instructions-container'>\n    <h2 class='instructions-header'>\n      Segment Complete\n    </h2>\n    <p class='instructions'>\n      That concludes this segment of the experiment.\n      Press the spacebar to continue.\n    </p>\n  </div>",
            "key_press": 32,
            "trial_type": "html-keyboard-response",
            "trial_index": 90,
            "time_elapsed": 1106406,
            "internal_node_id": "0.0-18.0"
        },
        {
            "rt": 4166.10000000149,
            "stimulus": "\n  <div class='instructions-container'>\n      <h2 class='instructions-header'>\n        End of Tasks\n      </h2>\n    <p class='instructions'>\n      Thank you. You have completed all of the tasks.\n    </p>\n\n    <p class='instructions'>\n    You will now be asked a short series of questions about yourself and\n    your thoughts about the experiment.</p>\n    </p>\n\n  <p class='instructions' ontouchstart=\"response(32)\" id='next'>\n      <b>Press continue to begin<b>\n    </p>",
            "key_press": 32,
            "trial_type": "html-keyboard-response",
            "trial_index": 91,
            "time_elapsed": 1111075,
            "internal_node_id": "0.0-19.0"
        },
        {
            "rt": 7353.30000000447,
            "responses": "{\"demographics_year\":\"1994\",\"demographics_gender\":\"m\",\"demographics_english\":\"yes\"}",
            "trial_part": "demographics",
            "trial_type": "survey-html-form",
            "trial_index": 92,
            "time_elapsed": 1118430,
            "internal_node_id": "0.0-20.0"
        },
        {
            "rt": 7178.89999999851,
            "responses": "{\"post_test_purpose\":\"1\"}",
            "trial_part": "post_test",
            "trial_type": "survey-html-form",
            "trial_index": 93,
            "time_elapsed": 1125611,
            "internal_node_id": "0.0-21.0"
        },
        {
            "rt": 1959.5,
            "responses": "{\"post_test_other\":\"2\"}",
            "trial_part": "post_test",
            "trial_type": "survey-html-form",
            "trial_index": 94,
            "time_elapsed": 1127573,
            "internal_node_id": "0.0-22.0"
        }
    ],
    "ppt_id": 182
}