{
    "results": [
        {
            "rt": 67319.19999999553,
            "stimulus": "\n  <div class='instructions-container'>\n      <h2 class='instructions-header'>\n        End of Tasks\n      </h2>\n    <p class='instructions'>\n      Thank you. You have completed all of the tasks.\n    </p>\n\n    <p class='instructions'>\n    You will now be asked a short series of questions about yourself and\n    your thoughts about the experiment.</p>\n    </p>\n\n  <p class='instructions' ontouchstart=\"response(32)\" id='next'>\n      <b>Press continue to begin<b>\n    </p>",
            "key_press": 91,
            "trial_type": "html-keyboard-response",
            "trial_index": 0,
            "time_elapsed": 881822,
            "internal_node_id": "0.0-0.0"
        },
        {
            "rt": 27438.60000000149,
            "responses": "{\"demographics_year\":\"1994\",\"demographics_gender\":\"m\",\"demographics_english\":\"yes\"}",
            "trial_part": "demographics",
            "trial_type": "survey-html-form",
            "trial_index": 1,
            "time_elapsed": 909281,
            "internal_node_id": "0.0-1.0"
        },
        {
            "rt": 4810.60000000149,
            "responses": "{\"post_test_purpose\":\"affordances\"}",
            "trial_part": "post_test",
            "trial_type": "survey-html-form",
            "trial_index": 2,
            "time_elapsed": 914097,
            "internal_node_id": "0.0-2.0"
        },
        {
            "rt": 2101,
            "responses": "{\"post_test_other\":\"0\"}",
            "trial_part": "post_test",
            "trial_type": "survey-html-form",
            "trial_index": 3,
            "time_elapsed": 916201,
            "internal_node_id": "0.0-3.0"
        }
    ],
    "ppt_id": 159
}