{
    "results": [
        {
            "rt": 6424.89999999851,
            "stimulus": "\n  <div class='instructions-container'>\n    <h2 class='instructions-header'>\n      Statement Rating Task\n    </h2>\n    <p class='instructions'>\n      In this task, you will be asked to read statements about how you\n      think and rate the statements based on how much you agree with them.\n    </p>\n\n    <p class='instructions'>\n      Each statement will appear on the screen one at a time.\n      Below the statement, you will see a 5 point scale for rating the \n      sentences. The scale goes from 1 (Strongly Disagree) to 5 \n      (Strongly Agree).\n      Click on the scale to indicate your rating and then click the\n      continue button to procede.\n    </p>\n\n    <p class='instructions' id='continue' ontouchstart=\"response(32)\">\n      <b>Press the spacebar to begin this segment.</b>\n    </p>\n  </div>",
            "key_press": 32,
            "trial_type": "html-keyboard-response",
            "trial_index": 0,
            "time_elapsed": 6428,
            "internal_node_id": "0.0-0.0"
        },
        {
            "rt": 2428.800000000745,
            "responses": "{\"irq-response\":\"4\"}",
            "trial_part": "trial",
            "task": "irq",
            "scale": "IRQ",
            "item_id": 17,
            "item": 17,
            "version": "a",
            "condition": "critical",
            "trial_type": "survey-html-form",
            "trial_index": 1,
            "time_elapsed": 9362,
            "internal_node_id": "0.0-1.0-0.0",
            "response": "4"
        },
        {
            "rt": 1451.5,
            "responses": "{\"irq-response\":\"2\"}",
            "trial_part": "trial",
            "task": "irq",
            "scale": "IRQ",
            "item_id": 10,
            "item": 10,
            "version": "a",
            "condition": "critical",
            "trial_type": "survey-html-form",
            "trial_index": 2,
            "time_elapsed": 11316,
            "internal_node_id": "0.0-1.0-0.1",
            "response": "2"
        },
        {
            "rt": 1709.5,
            "responses": "{\"irq-response\":\"3\"}",
            "trial_part": "trial",
            "task": "irq",
            "scale": "IRQ",
            "item_id": 23,
            "item": 23,
            "version": "a",
            "condition": "critical",
            "trial_type": "survey-html-form",
            "trial_index": 3,
            "time_elapsed": 13533,
            "internal_node_id": "0.0-1.0-0.2",
            "response": "3"
        },
        {
            "rt": 1227,
            "responses": "{\"irq-response\":\"4\"}",
            "trial_part": "trial",
            "task": "irq",
            "scale": "IRQ",
            "item_id": 28,
            "item": 28,
            "version": "a",
            "condition": "critical",
            "trial_type": "survey-html-form",
            "trial_index": 4,
            "time_elapsed": 15263,
            "internal_node_id": "0.0-1.0-0.3",
            "response": "4"
        },
        {
            "rt": 3173.800000000745,
            "responses": "{\"irq-response\":\"1\"}",
            "trial_part": "trial",
            "task": "irq",
            "scale": "IRQ",
            "item_id": 38,
            "item": 38,
            "version": "a",
            "condition": "filler",
            "trial_type": "survey-html-form",
            "trial_index": 5,
            "time_elapsed": 18939,
            "internal_node_id": "0.0-1.0-0.4",
            "response": "1"
        },
        {
            "rt": 1200.800000000745,
            "stimulus": "\n  <div class='instructions-container'>\n    <h2 class='instructions-header'>\n      Segment Complete\n    </h2>\n    <p class='instructions'>\n      That concludes this segment of the experiment.\n      Press the spacebar to continue to the next segment.\n    </p>\n  </div>",
            "key_press": 32,
            "trial_type": "html-keyboard-response",
            "trial_index": 6,
            "time_elapsed": 20643,
            "internal_node_id": "0.0-2.0"
        }
    ],
    "ppt_id": 84
}