{
    "results": [
        {
            "rt": 30630.30000001192,
            "stimulus": "\n  <div class='instructions-container'>\n    <h2 class='instructions-header'>\n      Instructions\n    </h2>\n    <p class='instructions'>\n      In this task, you will be read short passages and decide whether\n      the last sentence in the passage makes sense in the context\n      of the whole passage.\n    </p>\n\n    <p class='instructions'>\n      Both sentences will appear on the screen at the same time.\n      Below them you will see a 7 point scale for rating the \n      sentences from 1 (virtual nonsense) to 7 (completely sensible).\n      Click on the scale to indicate your rating and then click the\n      continue button to procede.\n    </p>\n\n    <p class='instructions'>\n      The full experiment will last around 30 minutes.\n    </p>\n\n    <p class='instructions' id='continue' ontouchstart=\"response(32)\">\n      <b>Press the spacebar to continue</b>\n    </p>\n  </div>",
            "key_press": 32,
            "trial_type": "html-keyboard-response",
            "trial_index": 0,
            "time_elapsed": 30634,
            "internal_node_id": "0.0-0.0"
        },
        {
            "rt": 33161.09999999404,
            "responses": "{\"affordance-response\":\"6\"}",
            "trial_part": "trial",
            "task": "affordance",
            "scale": "SENSIBILITY",
            "item_id": "10_related",
            "item": 10,
            "version": "a",
            "condition": "related",
            "trial_type": "survey-html-form",
            "trial_index": 1,
            "time_elapsed": 64299,
            "internal_node_id": "0.0-1.0-0.0",
            "response": "6"
        },
        {
            "rt": 22812.100000023842,
            "responses": "{\"affordance-response\":\"5\"}",
            "trial_part": "trial",
            "task": "affordance",
            "scale": "SENSIBILITY",
            "item_id": "1_related",
            "item": 1,
            "version": "c",
            "condition": "related",
            "trial_type": "survey-html-form",
            "trial_index": 2,
            "time_elapsed": 87620,
            "internal_node_id": "0.0-1.0-0.1",
            "response": "5"
        },
        {
            "rt": 1424.9000000059605,
            "responses": "{\"affordance-response\":\"7\"}",
            "trial_part": "trial",
            "task": "affordance",
            "scale": "SENSIBILITY",
            "item_id": "12_related",
            "item": 12,
            "version": "a",
            "condition": "related",
            "trial_type": "survey-html-form",
            "trial_index": 3,
            "time_elapsed": 89547,
            "internal_node_id": "0.0-1.0-0.2",
            "response": "7"
        }
    ],
    "ppt_id": 68
}