{
    "results": [
        {
            "rt": 2237.099999997765,
            "stimulus": "\n  <div class='instructions-container'>\n    <h2 class='instructions-header'>\n      Statement Rating Task\n    </h2>\n    <p class='instructions'>\n      In this task, you will be asked to read statements about how you\n      think and rate the statements based on how much you agree with them.\n    </p>\n\n    <p class='instructions'>\n      Each statement will appear on the screen one at a time.\n      Below the statement, you will see a 5 point scale for rating the \n      sentences. The scale goes from 1 (Strongly Disagree) to 5 \n      (Strongly Agree).\n      Click on the scale to indicate your rating and then click the\n      continue button to procede.\n    </p>\n\n    <p class='instructions' id='continue' ontouchstart=\"response(32)\">\n      <b>Press the spacebar to begin this segment.</b>\n    </p>\n  </div>",
            "key_press": 32,
            "trial_type": "html-keyboard-response",
            "trial_index": 0,
            "time_elapsed": 2240,
            "internal_node_id": "0.0-0.0"
        },
        {
            "rt": 2656.199999999255,
            "responses": "{\"irq-response\":\"1\"}",
            "trial_part": "trial",
            "task": "irq",
            "scale": "IRQ",
            "item_id": 37,
            "item": 37,
            "item_type": "filler",
            "trial_type": "survey-html-form",
            "trial_index": 1,
            "time_elapsed": 5400,
            "internal_node_id": "0.0-1.0-0.0",
            "response": "1"
        },
        {
            "rt": 14103.5,
            "responses": "{\"irq-response\":\"4\"}",
            "trial_part": "trial",
            "task": "irq",
            "scale": "IRQ",
            "item_id": 13,
            "item": 13,
            "item_type": "critical",
            "trial_type": "survey-html-form",
            "trial_index": 2,
            "time_elapsed": 20008,
            "internal_node_id": "0.0-1.0-0.1",
            "response": "4"
        },
        {
            "rt": 4952.900000002235,
            "responses": "{\"irq-response\":\"5\"}",
            "trial_part": "trial",
            "task": "irq",
            "scale": "IRQ",
            "item_id": 30,
            "item": 30,
            "item_type": "critical",
            "trial_type": "survey-html-form",
            "trial_index": 3,
            "time_elapsed": 25464,
            "internal_node_id": "0.0-1.0-0.2",
            "response": "5"
        },
        {
            "rt": 13377.699999999255,
            "responses": "{\"irq-response\":\"2\"}",
            "trial_part": "trial",
            "task": "irq",
            "scale": "IRQ",
            "item_id": 8,
            "item": 8,
            "item_type": "critical",
            "trial_type": "survey-html-form",
            "trial_index": 4,
            "time_elapsed": 39345,
            "internal_node_id": "0.0-1.0-0.3",
            "response": "2"
        },
        {
            "rt": 12927,
            "responses": "{\"irq-response\":\"3\"}",
            "trial_part": "trial",
            "task": "irq",
            "scale": "IRQ",
            "item_id": 5,
            "item": 5,
            "item_type": "critical",
            "trial_type": "survey-html-form",
            "trial_index": 5,
            "time_elapsed": 52780,
            "internal_node_id": "0.0-1.0-0.4",
            "response": "3"
        },
        {
            "rt": 1932.1000000014901,
            "stimulus": "\n  <div class='instructions-container'>\n    <h2 class='instructions-header'>\n      Segment Complete\n    </h2>\n    <p class='instructions'>\n      That concludes this segment of the experiment.\n      Press the spacebar to continue to the next segment.\n    </p>\n  </div>",
            "key_press": 32,
            "trial_type": "html-keyboard-response",
            "trial_index": 6,
            "time_elapsed": 55218,
            "internal_node_id": "0.0-2.0"
        }
    ],
    "ppt_id": 85
}