{
    "results": [
        {
            "rt": 771.3000000119209,
            "stimulus": "\n  <div class='instructions-container'>\n    <h2 class='instructions-header'>\n      Instructions\n    </h2>\n    <p class='instructions'>\n      In this task, you will be read short passages and decide whether\n      the last sentence in the passage makes sense in the context\n      of the whole passage.\n    </p>\n\n    <p class='instructions'>\n      Both sentences will appear on the screen at the same time.\n      Below them you will see a 7 point scale for rating the \n      sentences from 1 (virtual nonsense) to 7 (completely sensible).\n      Click on the scale to indicate your rating and then click the\n      continue button to procede.\n    </p>\n\n    <p class='instructions'>\n      The full experiment will last around 30 minutes.\n    </p>\n\n    <p class='instructions' id='continue' ontouchstart=\"response(32)\">\n      <b>Press the spacebar to continue</b>\n    </p>\n  </div>",
            "key_press": 32,
            "trial_type": "html-keyboard-response",
            "trial_index": 0,
            "time_elapsed": 774,
            "internal_node_id": "0.0-0.0"
        },
        {
            "rt": 2335.800000011921,
            "responses": "{\"affordance-response\":\"3\"}",
            "trial_part": "trial",
            "task": "affordance",
            "scale": "ENVISIONING",
            "item_id": "13_afforded",
            "item": 13,
            "version": "a",
            "condition": "afforded",
            "trial_type": "survey-html-form",
            "trial_index": 1,
            "time_elapsed": 3613,
            "internal_node_id": "0.0-1.0-0.0",
            "response": "3"
        },
        {
            "rt": 1374.4000000059605,
            "responses": "{\"affordance-response\":\"4\"}",
            "trial_part": "trial",
            "task": "affordance",
            "scale": "ENVISIONING",
            "item_id": "10_afforded",
            "item": 10,
            "version": "b",
            "condition": "afforded",
            "trial_type": "survey-html-form",
            "trial_index": 2,
            "time_elapsed": 5492,
            "internal_node_id": "0.0-1.0-0.1",
            "response": "4"
        },
        {
            "rt": 1471.6000000238419,
            "responses": "{\"affordance-response\":\"5\"}",
            "trial_part": "trial",
            "task": "affordance",
            "scale": "ENVISIONING",
            "item_id": "16_related",
            "item": 16,
            "version": "b",
            "condition": "related",
            "trial_type": "survey-html-form",
            "trial_index": 3,
            "time_elapsed": 7467,
            "internal_node_id": "0.0-1.0-0.2",
            "response": "5"
        }
    ],
    "ppt_id": 66
}