{
    "results": [
        {
            "rt": 656.2000000029802,
            "stimulus": "\n             <div class='instructions-container'>\n              <h2 class='instructions-header'>Welcome</h2>\n              <p class='welcome'>Thank you for your interest in this study.</p>\n              <p class='welcome' ontouchstart=\"response(32)\">\n                <b>Press the spacebar to continue</b>\n              </p>\n            </div>",
            "key_press": 32,
            "trial_type": "html-keyboard-response",
            "trial_index": 0,
            "time_elapsed": 659,
            "internal_node_id": "0.0-0.0"
        },
        {
            "rt": 3063.5,
            "responses": "{\"consent\":\"on\"}",
            "trial_type": "survey-html-form",
            "trial_index": 1,
            "time_elapsed": 3732,
            "internal_node_id": "0.0-1.0"
        },
        {
            "success": true,
            "trial_type": "fullscreen",
            "trial_index": 2,
            "time_elapsed": 6174,
            "internal_node_id": "0.0-2.0"
        },
        {
            "rt": 932.4000000059605,
            "stimulus": "\n  <div class='instructions-container'>\n    <h2 class='instructions-header'>\n      Instructions\n    </h2>\n    <p class='instructions'>\n      In this task, you will read short passages and rate each passage\n      based on whether the last sentence in the passage makes sense\n      in the context of the whole passage.\n    </p>\n\n    <p class='instructions'>\n      The whole passage will appear on the screen at the same time.\n      Below the passage you will see a 7 point scale for rating the \n      final sentence. The scale goes from 1 (virtual nonsense) to 7\n      (completely sensible). Click on the scale to indicate your rating\n      and then click the continue button to procede.\n    </p>\n\n    <p class='instructions'>\n      The full experiment will last around 30 minutes.\n    </p>\n\n    <p class='instructions' id='continue' ontouchstart=\"response(32)\">\n      <b>Press the spacebar to continue</b>\n    </p>\n  </div>",
            "key_press": 32,
            "trial_type": "html-keyboard-response",
            "trial_index": 3,
            "time_elapsed": 7610,
            "internal_node_id": "0.0-3.0"
        },
        {
            "rt": 4491.60000000149,
            "responses": "{\"affordance-response\":\"6\"}",
            "trial_part": "trial",
            "task": "affordance",
            "scale": "SENSIBILITY",
            "item_type": "critical",
            "item_id": "17_afforded",
            "item": 17,
            "version": "b",
            "condition": "afforded",
            "trial_type": "survey-html-form",
            "trial_index": 4,
            "time_elapsed": 12606,
            "internal_node_id": "0.0-4.0-0.0",
            "response": "6"
        },
        {
            "rt": 3703,
            "responses": "{\"affordance-response\":\"6\"}",
            "trial_part": "trial",
            "task": "affordance",
            "scale": "SENSIBILITY",
            "item_type": "critical",
            "item_id": "4_related",
            "item": 4,
            "version": "a",
            "condition": "related",
            "trial_type": "survey-html-form",
            "trial_index": 5,
            "time_elapsed": 16812,
            "internal_node_id": "0.0-4.0-0.1",
            "response": "6"
        },
        {
            "rt": 10097.69999999553,
            "responses": "{\"affordance-response\":\"4\"}",
            "trial_part": "trial",
            "task": "affordance",
            "scale": "SENSIBILITY",
            "item_type": "critical",
            "item_id": "16_afforded",
            "item": 16,
            "version": "a",
            "condition": "afforded",
            "trial_type": "survey-html-form",
            "trial_index": 6,
            "time_elapsed": 27414,
            "internal_node_id": "0.0-4.0-0.2",
            "response": "4"
        },
        {
            "rt": 3638.9000000059605,
            "responses": "{\"affordance-response\":\"7\"}",
            "trial_part": "trial",
            "task": "affordance",
            "scale": "SENSIBILITY",
            "item_type": "critical",
            "item_id": "14_afforded",
            "item": 14,
            "version": "b",
            "condition": "afforded",
            "trial_type": "survey-html-form",
            "trial_index": 7,
            "time_elapsed": 31556,
            "internal_node_id": "0.0-4.0-0.3",
            "response": "7"
        },
        {
            "rt": 5623.39999999851,
            "responses": "{\"affordance-response\":\"5\"}",
            "trial_part": "trial",
            "task": "affordance",
            "scale": "SENSIBILITY",
            "item_type": "critical",
            "item_id": "11_afforded",
            "item": 11,
            "version": "a",
            "condition": "afforded",
            "trial_type": "survey-html-form",
            "trial_index": 8,
            "time_elapsed": 37682,
            "internal_node_id": "0.0-4.0-0.4",
            "response": "5"
        },
        {
            "rt": 1024.8000000044703,
            "stimulus": "\n  <div class='instructions-container'>\n    <h2 class='instructions-header'>\n      Segment Complete\n    </h2>\n    <p class='instructions'>\n      That concludes the sentence completion segment of the experiment.\n      Press the spacebar to continue to the next segment.\n    </p>\n  </div>",
            "key_press": 32,
            "trial_type": "html-keyboard-response",
            "trial_index": 9,
            "time_elapsed": 39209,
            "internal_node_id": "0.0-5.0"
        },
        {
            "rt": 2372,
            "stimulus": "\n  <div class='instructions-container'>\n    <h2 class='instructions-header'>\n      Statement Rating Task\n    </h2>\n    <p class='instructions'>\n      In this task, you will be asked to read statements about how you\n      think and rate the statements based on how much you agree with them.\n    </p>\n\n    <p class='instructions'>\n      Each statement will appear on the screen one at a time.\n      Below the statement, you will see a 5 point scale for rating the \n      sentences. The scale goes from 1 (Strongly Disagree) to 5 \n      (Strongly Agree).\n      Click on the scale to indicate your rating and then click the\n      continue button to procede.\n    </p>\n\n    <p class='instructions' id='continue' ontouchstart=\"response(32)\">\n      <b>Press the spacebar to begin this segment.</b>\n    </p>\n  </div>",
            "key_press": 32,
            "trial_type": "html-keyboard-response",
            "trial_index": 10,
            "time_elapsed": 42084,
            "internal_node_id": "0.0-6.0"
        },
        {
            "rt": 2957.89999999851,
            "responses": "{\"irq-response\":\"1\"}",
            "trial_part": "trial",
            "task": "irq",
            "scale": "IRQ",
            "item_id": 37,
            "item": 37,
            "item_type": "filler",
            "trial_type": "survey-html-form",
            "trial_index": 11,
            "time_elapsed": 45544,
            "internal_node_id": "0.0-7.0-0.0",
            "response": "1"
        },
        {
            "rt": 4195.5,
            "responses": "{\"irq-response\":\"5\"}",
            "trial_part": "trial",
            "task": "irq",
            "scale": "IRQ",
            "item_id": 28,
            "item": 28,
            "item_type": "critical",
            "trial_type": "survey-html-form",
            "trial_index": 12,
            "time_elapsed": 50245,
            "internal_node_id": "0.0-7.0-0.1",
            "response": "5"
        },
        {
            "rt": 6945.10000000149,
            "responses": "{\"irq-response\":\"3\"}",
            "trial_part": "trial",
            "task": "irq",
            "scale": "IRQ",
            "item_id": 34,
            "item": 34,
            "item_type": "critical",
            "trial_type": "survey-html-form",
            "trial_index": 13,
            "time_elapsed": 57694,
            "internal_node_id": "0.0-7.0-0.2",
            "response": "3"
        },
        {
            "rt": 3591.8000000044703,
            "responses": "{\"irq-response\":\"2\"}",
            "trial_part": "trial",
            "task": "irq",
            "scale": "IRQ",
            "item_id": 8,
            "item": 8,
            "item_type": "critical",
            "trial_type": "survey-html-form",
            "trial_index": 14,
            "time_elapsed": 61790,
            "internal_node_id": "0.0-7.0-0.3",
            "response": "2"
        },
        {
            "rt": 5859.39999999851,
            "responses": "{\"irq-response\":\"4\"}",
            "trial_part": "trial",
            "task": "irq",
            "scale": "IRQ",
            "item_id": 15,
            "item": 15,
            "item_type": "critical",
            "trial_type": "survey-html-form",
            "trial_index": 15,
            "time_elapsed": 68154,
            "internal_node_id": "0.0-7.0-0.4",
            "response": "4"
        },
        {
            "rt": 1072,
            "stimulus": "\n  <div class='instructions-container'>\n    <h2 class='instructions-header'>\n      Segment Complete\n    </h2>\n    <p class='instructions'>\n      That concludes this segment of the experiment.\n      Press the spacebar to continue to the next segment.\n    </p>\n  </div>",
            "key_press": 32,
            "trial_type": "html-keyboard-response",
            "trial_index": 16,
            "time_elapsed": 69729,
            "internal_node_id": "0.0-8.0"
        },
        {
            "rt": 6685.20000000298,
            "stimulus": "\n  <div class='instructions-container'>\n    <h2 class='instructions-header'>\n      Object Matching Task\n    </h2>\n    <p class='instructions'>\n      In this task, you will see images of two objects side-by-side.\n      Sometimes, the image on the right will show the same object as\n      the image on the left but from a different angle. In this case,\n      the object on the right could be rotated to match the image on\n      the left. In other cases, the images will show different objects,\n      so that the objects cannot be rotated to match. Your task is to\n      decide whether or not the objects are the same (i.e. they can\n      be rotated to match).\n    </p>\n\n    <p class='instructions'>\n      Use the keyboard to give your answer.\n      If the objects can be rotated to match, press the\n      <span class='key-demo'>j</span> key. If they can't, press the\n      <span class='key-demo'>f</span> key.\n      Try to respond as quickly and accurately as possible.\n    </p>\n\n\n    <p class='instructions' id='continue' ontouchstart=\"response(32)\">\n      <b>Press the spacebar to continue to an example.</b>\n    </p>\n  </div>",
            "key_press": 32,
            "trial_type": "html-keyboard-response",
            "trial_index": 17,
            "time_elapsed": 76916,
            "internal_node_id": "0.0-9.0"
        },
        {
            "rt": 1276.6999999955297,
            "stimulus": "\n  <div class='instructions-container'>\n    <h2 class='instructions-header'>\n      Object Matching Task | Example 1\n    </h2>\n    <p class='instructions'>\n      For example, if you saw the following pair of objects, \n      you would press <span class='key-demo'>j</span> key, because\n      the objects can be rotated to match.\n    </p>\n\n    <div class='mr-img-container'>\n      <img class=\"mr-img\" src=\"/static/affordances/mental_rotation/1_50.jpg\">\n    </div>\n\n    <p class='instructions' id='continue' ontouchstart=\"response(32)\">\n      <b>Press the spacebar to continue.</b>\n    </p>\n  </div>",
            "key_press": 32,
            "trial_type": "html-keyboard-response",
            "trial_index": 18,
            "time_elapsed": 78695,
            "internal_node_id": "0.0-10.0"
        },
        {
            "rt": 662.3999999985099,
            "stimulus": "\n  <div class='instructions-container'>\n    <h2 class='instructions-header'>\n      Object Matching Task | Example 2\n    </h2>\n    <p class='instructions'>\n      However, in this example, the objects cannot be rotated to match, \n      so you would press the <span class='key-demo'>f</span> key.\n    </p>\n\n    <div class='mr-img-container'>\n      <img class=\"mr-img\" src=\"/static/affordances/mental_rotation/1_0_R.jpg\">\n    </div>\n\n    <p class='instructions' id='continue' ontouchstart=\"response(32)\">\n      <b>Press the spacebar to continue.</b>\n    </p>\n  </div>",
            "key_press": 32,
            "trial_type": "html-keyboard-response",
            "trial_index": 19,
            "time_elapsed": 79861,
            "internal_node_id": "0.0-11.0"
        },
        {
            "rt": 824.8999999985099,
            "stimulus": "\n  <div class='instructions-container'>\n    <h2 class='instructions-header'>\n      Begin Task\n    </h2>\n\n    <p class='instructions c'>\n      The task will begin on the next page.\n    </p>\n\n    <p class='instructions' id='continue' ontouchstart=\"response(32)\">\n      <b>Press the spacebar to continue.</b>\n    </p>\n  </div>",
            "key_press": 32,
            "trial_type": "html-keyboard-response",
            "trial_index": 20,
            "time_elapsed": 81189,
            "internal_node_id": "0.0-12.0"
        },
        {
            "rt": 3901,
            "stimulus": "<div class='mr-container'>\n\n           <div class='mr-img-container'>\n              <img class=\"mr-img\" src=\"/static/affordances/mental_rotation/18_0.jpg\">\n           </div>\n\n           <div class='mr-keyhint-container'>\n\n              <div class='mr-keyhint'>\n                <p class='mr-keyhint-label'>\n                  No match: <span class='key-demo'>f</span>\n                </p>\n              </div>\n\n              <div class='mr-keyhint'>\n                <p class='mr-keyhint-label'>\n                  Match: <span class='key-demo'>j</span>\n                </p>\n              </div>\n\n           </div>\n\n        </div>",
            "key_press": 74,
            "trial_part": "trial",
            "task": "MR",
            "item_id": "18_0",
            "item": 18,
            "item_type": "filler",
            "condition": false,
            "version": 0,
            "correct_response": true,
            "trial_type": "html-keyboard-response",
            "trial_index": 21,
            "time_elapsed": 85596,
            "internal_node_id": "0.0-13.0-0.0",
            "response": true,
            "is_correct": true
        },
        {
            "rt": 1247.6999999955297,
            "stimulus": "<div class='mr-container'>\n\n           <div class='mr-img-container'>\n              <img class=\"mr-img\" src=\"/static/affordances/mental_rotation/25_50_R.jpg\">\n           </div>\n\n           <div class='mr-keyhint-container'>\n\n              <div class='mr-keyhint'>\n                <p class='mr-keyhint-label'>\n                  No match: <span class='key-demo'>f</span>\n                </p>\n              </div>\n\n              <div class='mr-keyhint'>\n                <p class='mr-keyhint-label'>\n                  Match: <span class='key-demo'>j</span>\n                </p>\n              </div>\n\n           </div>\n\n        </div>",
            "key_press": 70,
            "trial_part": "trial",
            "task": "MR",
            "item_id": "25_50_R",
            "item": 25,
            "item_type": "critical",
            "condition": true,
            "version": 50,
            "correct_response": false,
            "trial_type": "html-keyboard-response",
            "trial_index": 22,
            "time_elapsed": 87348,
            "internal_node_id": "0.0-13.0-0.1",
            "response": false,
            "is_correct": true
        },
        {
            "rt": 1226.0999999940395,
            "stimulus": "<div class='mr-container'>\n\n           <div class='mr-img-container'>\n              <img class=\"mr-img\" src=\"/static/affordances/mental_rotation/36_0.jpg\">\n           </div>\n\n           <div class='mr-keyhint-container'>\n\n              <div class='mr-keyhint'>\n                <p class='mr-keyhint-label'>\n                  No match: <span class='key-demo'>f</span>\n                </p>\n              </div>\n\n              <div class='mr-keyhint'>\n                <p class='mr-keyhint-label'>\n                  Match: <span class='key-demo'>j</span>\n                </p>\n              </div>\n\n           </div>\n\n        </div>",
            "key_press": 74,
            "trial_part": "trial",
            "task": "MR",
            "item_id": "36_0",
            "item": 36,
            "item_type": "filler",
            "condition": false,
            "version": 0,
            "correct_response": true,
            "trial_type": "html-keyboard-response",
            "trial_index": 23,
            "time_elapsed": 89076,
            "internal_node_id": "0.0-13.0-0.2",
            "response": true,
            "is_correct": true
        },
        {
            "rt": 2122.7000000029802,
            "stimulus": "<div class='mr-container'>\n\n           <div class='mr-img-container'>\n              <img class=\"mr-img\" src=\"/static/affordances/mental_rotation/9_150.jpg\">\n           </div>\n\n           <div class='mr-keyhint-container'>\n\n              <div class='mr-keyhint'>\n                <p class='mr-keyhint-label'>\n                  No match: <span class='key-demo'>f</span>\n                </p>\n              </div>\n\n              <div class='mr-keyhint'>\n                <p class='mr-keyhint-label'>\n                  Match: <span class='key-demo'>j</span>\n                </p>\n              </div>\n\n           </div>\n\n        </div>",
            "key_press": 74,
            "trial_part": "trial",
            "task": "MR",
            "item_id": "9_150",
            "item": 9,
            "item_type": "critical",
            "condition": false,
            "version": 150,
            "correct_response": true,
            "trial_type": "html-keyboard-response",
            "trial_index": 24,
            "time_elapsed": 91701,
            "internal_node_id": "0.0-13.0-0.3",
            "response": true,
            "is_correct": true
        },
        {
            "rt": 1499.6000000014901,
            "stimulus": "<div class='mr-container'>\n\n           <div class='mr-img-container'>\n              <img class=\"mr-img\" src=\"/static/affordances/mental_rotation/18_150.jpg\">\n           </div>\n\n           <div class='mr-keyhint-container'>\n\n              <div class='mr-keyhint'>\n                <p class='mr-keyhint-label'>\n                  No match: <span class='key-demo'>f</span>\n                </p>\n              </div>\n\n              <div class='mr-keyhint'>\n                <p class='mr-keyhint-label'>\n                  Match: <span class='key-demo'>j</span>\n                </p>\n              </div>\n\n           </div>\n\n        </div>",
            "key_press": 74,
            "trial_part": "trial",
            "task": "MR",
            "item_id": "18_150",
            "item": 18,
            "item_type": "critical",
            "condition": false,
            "version": 150,
            "correct_response": true,
            "trial_type": "html-keyboard-response",
            "trial_index": 25,
            "time_elapsed": 93703,
            "internal_node_id": "0.0-13.0-0.4",
            "response": true,
            "is_correct": true
        },
        {
            "rt": 1124.2999999970198,
            "stimulus": "<div class='mr-container'>\n\n           <div class='mr-img-container'>\n              <img class=\"mr-img\" src=\"/static/affordances/mental_rotation/33_0.jpg\">\n           </div>\n\n           <div class='mr-keyhint-container'>\n\n              <div class='mr-keyhint'>\n                <p class='mr-keyhint-label'>\n                  No match: <span class='key-demo'>f</span>\n                </p>\n              </div>\n\n              <div class='mr-keyhint'>\n                <p class='mr-keyhint-label'>\n                  Match: <span class='key-demo'>j</span>\n                </p>\n              </div>\n\n           </div>\n\n        </div>",
            "key_press": 74,
            "trial_part": "trial",
            "task": "MR",
            "item_id": "33_0",
            "item": 33,
            "item_type": "filler",
            "condition": false,
            "version": 0,
            "correct_response": true,
            "trial_type": "html-keyboard-response",
            "trial_index": 26,
            "time_elapsed": 95329,
            "internal_node_id": "0.0-13.0-0.5",
            "response": true,
            "is_correct": true
        },
        {
            "rt": 11641.89999999851,
            "stimulus": "<div class='mr-container'>\n\n           <div class='mr-img-container'>\n              <img class=\"mr-img\" src=\"/static/affordances/mental_rotation/42_0_R.jpg\">\n           </div>\n\n           <div class='mr-keyhint-container'>\n\n              <div class='mr-keyhint'>\n                <p class='mr-keyhint-label'>\n                  No match: <span class='key-demo'>f</span>\n                </p>\n              </div>\n\n              <div class='mr-keyhint'>\n                <p class='mr-keyhint-label'>\n                  Match: <span class='key-demo'>j</span>\n                </p>\n              </div>\n\n           </div>\n\n        </div>",
            "key_press": 70,
            "trial_part": "trial",
            "task": "MR",
            "item_id": "42_0_R",
            "item": 42,
            "item_type": "critical",
            "condition": true,
            "version": 0,
            "correct_response": false,
            "trial_type": "html-keyboard-response",
            "trial_index": 27,
            "time_elapsed": 107473,
            "internal_node_id": "0.0-13.0-0.6",
            "response": false,
            "is_correct": true
        },
        {
            "rt": 3764,
            "stimulus": "<div class='mr-container'>\n\n           <div class='mr-img-container'>\n              <img class=\"mr-img\" src=\"/static/affordances/mental_rotation/46_0_R.jpg\">\n           </div>\n\n           <div class='mr-keyhint-container'>\n\n              <div class='mr-keyhint'>\n                <p class='mr-keyhint-label'>\n                  No match: <span class='key-demo'>f</span>\n                </p>\n              </div>\n\n              <div class='mr-keyhint'>\n                <p class='mr-keyhint-label'>\n                  Match: <span class='key-demo'>j</span>\n                </p>\n              </div>\n\n           </div>\n\n        </div>",
            "key_press": 70,
            "trial_part": "trial",
            "task": "MR",
            "item_id": "46_0_R",
            "item": 46,
            "item_type": "critical",
            "condition": true,
            "version": 0,
            "correct_response": false,
            "trial_type": "html-keyboard-response",
            "trial_index": 28,
            "time_elapsed": 111739,
            "internal_node_id": "0.0-13.0-0.7",
            "response": false,
            "is_correct": true
        },
        {
            "rt": 7715.79999999702,
            "stimulus": "\n  <div class='instructions-container'>\n    <h2 class='instructions-header'>\n      Segment Complete\n    </h2>\n    <p class='instructions'>\n      That concludes this segment of the experiment.\n      Press the spacebar to continue to the next segment.\n    </p>\n  </div>",
            "key_press": 32,
            "trial_type": "html-keyboard-response",
            "trial_index": 29,
            "time_elapsed": 119958,
            "internal_node_id": "0.0-14.0"
        },
        {
            "rt": 18751.40000000596,
            "stimulus": "\n  <div class='instructions-container'>\n    <h2 class='instructions-header'>\n      Alternative Uses Task\n    </h2>\n    <p class='instructions'>\n      In this task, you need to come up with alternative uses for a\n      common object.\n    </p>\n\n    <p class='instructions'>\n      When you begin the task, the name of the common object will\n      appear at the top of the screen. Please enter all of the\n      alternative uses you can think of for the object in the text box\n      below, separated by commas. You will have one minute to list\n      all of the uses you can think of.\n    </p>\n\n    <p class='instructions'>\n      Be inventive and try to think of a diverse range of unusual uses\n      for which the object would be appropriate. You don't have to write in full\n      sentences, just give enough information to make it clear what the\n      intended use is.\n    </p>\n\n    <p class='instructions' id='continue' ontouchstart=\"response(32)\">\n      <b>Press the spacebar to continue to an example.</b>\n    </p>\n  </div>",
            "key_press": 32,
            "trial_type": "html-keyboard-response",
            "trial_index": 30,
            "time_elapsed": 139214,
            "internal_node_id": "0.0-15.0"
        },
        {
            "rt": 24245.70000000298,
            "stimulus": "\n  <div class='instructions-container'>\n    <h2 class='instructions-header'>\n      Example\n    </h2>\n    <p class='instructions'>\n      For example, if the object was 'a brick', you might enter the\n      following uses in the textbox like so:\n    </p>\n\n    <div class='question au'>\n\n      <div class='au-header'>\n        <div class='quesiton-title-container'>\n          <h3 class='question-title'>\n            A Brick\n          </h3>\n        </div>\n\n        <div class='countdown-container'>\n          <span id=\"countdown-label\">Time Remaining:</span><span id=\"countdown\">1:00</span>\n        </div>\n\n      </div>\n\n      <textarea class=\"textbox au\" id=\"au-response\" \n      name=\"au-response\" readonly>doorstop, paperweight, bookend, laptop stand, medicine ball, cracking nuts, support for sawing wood, practice retrieving objects from a swimming pool\n      </textarea>\n\n    </div>\n\n    <p class='instructions' id='continue' ontouchstart=\"response(32)\">\n      <b>Your time will start on the next page.\n      Press the spacebar to begin.</b>\n    </p>\n  </div>",
            "key_press": 32,
            "trial_type": "html-keyboard-response",
            "trial_index": 31,
            "time_elapsed": 163963,
            "internal_node_id": "0.0-16.0"
        },
        {
            "rt": 69750.20000000298,
            "responses": "{\"au-response\":\"lego sword\",\"au-response-hidden\":\"\"}",
            "trial_part": "trial",
            "task": "AU",
            "item_id": "1_paperclip",
            "item": 1,
            "item_type": "critical",
            "condition": "paperclip",
            "version": "",
            "trial_type": "survey-html-form",
            "trial_index": 32,
            "time_elapsed": 234218,
            "internal_node_id": "0.0-17.0-0.0",
            "response": "lego sword"
        },
        {
            "rt": 2909.5,
            "stimulus": "\n  <div class='instructions-container'>\n    <h2 class='instructions-header'>\n      Segment Complete\n    </h2>\n    <p class='instructions'>\n      That concludes this segment of the experiment.\n      Press the spacebar to continue.\n    </p>\n  </div>",
            "key_press": 32,
            "trial_type": "html-keyboard-response",
            "trial_index": 33,
            "time_elapsed": 237635,
            "internal_node_id": "0.0-18.0"
        },
        {
            "rt": 53193.60000000149,
            "stimulus": "\n  <div class='instructions-container'>\n      <h2 class='instructions-header'>\n        End of Tasks\n      </h2>\n    <p class='instructions'>\n      Thank you. You have completed all of the tasks.\n    </p>\n\n    <p class='instructions'>\n    You will now be asked a short series of questions about yourself and\n    your thoughts about the experiment.</p>\n    </p>\n\n  <p class='instructions' ontouchstart=\"response(32)\" id='next'>\n      <b>Press continue to begin<b>\n    </p>",
            "key_press": 32,
            "trial_type": "html-keyboard-response",
            "trial_index": 34,
            "time_elapsed": 291333,
            "internal_node_id": "0.0-19.0"
        },
        {
            "rt": 6370.39999999851,
            "responses": "{\"demographics_year\":\"1994\",\"demographics_gender\":\"m\",\"demographics_english\":\"yes\"}",
            "trial_part": "demographics",
            "trial_type": "survey-html-form",
            "trial_index": 35,
            "time_elapsed": 297708,
            "internal_node_id": "0.0-20.0"
        },
        {
            "rt": 2156.2000000029802,
            "responses": "{\"post_test_purpose\":\"1\"}",
            "trial_part": "post_test",
            "trial_type": "survey-html-form",
            "trial_index": 36,
            "time_elapsed": 299867,
            "internal_node_id": "0.0-21.0"
        },
        {
            "rt": 212818.80000000447,
            "responses": "{\"post_test_other\":\"1\"}",
            "trial_part": "post_test",
            "trial_type": "survey-html-form",
            "trial_index": 37,
            "time_elapsed": 512696,
            "internal_node_id": "0.0-22.0"
        }
    ],
    "ppt_id": 181
}