{
    "results": [
        {
            "rt": 1223.5,
            "stimulus": "\n  <div class='instructions-container'>\n    <h2 class='instructions-header'>\n      Object Matching Task\n    </h2>\n    <p class='instructions'>\n      In this task, you will see images of two objects side-by-side.\n      Sometimes, the image on the right will show the same object as\n      the image on the left but from a different angle. In this case,\n      the object on the right could be rotated to match the image on\n      the left. In other cases, the images will show different objects,\n      so that the objects cannot be rotated to match. Your task is to\n      decide whether or not the objects are the same (i.e. they can\n      be rotated to match).\n    </p>\n\n    <p class='instructions'>\n      You can use the keyboard to indicate your answer.\n      If the objects can be rotated to match, press the\n      <span class='key-demo'>j</span> key. If they can't, press the\n      <span class='key-demo'>f</span> key.\n      Try to respond as quickly and accurately as possible.\n    </p>\n\n\n    <p class='instructions' id='continue' ontouchstart=\"response(32)\">\n      <b>Press the spacebar to continue.</b>\n    </p>\n  </div>",
            "key_press": 32,
            "trial_type": "html-keyboard-response",
            "trial_index": 0,
            "time_elapsed": 1226,
            "internal_node_id": "0.0-0.0"
        },
        {
            "rt": 1987.699999999255,
            "stimulus": "\n  <div class='instructions-container'>\n    <h2 class='instructions-header'>\n      Object Matching Task | Example 1\n    </h2>\n    <p class='instructions'>\n      For example, if you saw the following pair of objects, \n      you would press <span class='key-demo'>j</span> key, because\n      the objects can be rotated to match.\n    </p>\n\n    <div class='mr-img-container'>\n      <img class=\"mr-img\" src=\"/static/affordances/mental_rotation/1_50.jpg\">\n    </div>\n\n    <p class='instructions' id='continue' ontouchstart=\"response(32)\">\n      <b>Press the spacebar to continue.</b>\n    </p>\n  </div>",
            "key_press": 32,
            "trial_type": "html-keyboard-response",
            "trial_index": 1,
            "time_elapsed": 3716,
            "internal_node_id": "0.0-1.0"
        },
        {
            "rt": 1207.9000000022352,
            "stimulus": "\n  <div class='instructions-container'>\n    <h2 class='instructions-header'>\n      Object Matching Task | Example 2\n    </h2>\n    <p class='instructions'>\n      However, in this example, the objects cannot be rotated to match, \n      so you would press the <span class='key-demo'>f</span> key.\n    </p>\n\n    <div class='mr-img-container'>\n      <img class=\"mr-img\" src=\"/static/affordances/mental_rotation/1_0_R.jpg\">\n    </div>\n\n    <p class='instructions' id='continue' ontouchstart=\"response(32)\">\n      <b>Press the spacebar to continue.</b>\n    </p>\n  </div>",
            "key_press": 32,
            "trial_type": "html-keyboard-response",
            "trial_index": 2,
            "time_elapsed": 5430,
            "internal_node_id": "0.0-2.0"
        },
        {
            "rt": 979,
            "stimulus": "\n  <div class='instructions-container'>\n    <h2 class='instructions-header'>\n      Begin Task\n    </h2>\n\n    <p class='instructions'>\n      The task will begin on the next page.\n    </p>\n\n    <p class='instructions' id='continue' ontouchstart=\"response(32)\">\n      <b>Press the spacebar to continue.</b>\n    </p>\n  </div>",
            "key_press": 32,
            "trial_type": "html-keyboard-response",
            "trial_index": 3,
            "time_elapsed": 6911,
            "internal_node_id": "0.0-3.0"
        },
        {
            "rt": 2754.89999999851,
            "stimulus": "<div class='mr-container'>\n\n           <div class='mr-img-container'>\n              <img class=\"mr-img\" src=\"/static/affordances/mental_rotation/39_150_R.jpg\">\n           </div>\n\n           <div class='mr-keyhint-container'>\n\n              <div class='mr-keyhint'>\n                <p class='mr-keyhint-label'>\n                  No match: <span class='key-demo'>f</span>\n                </p>\n              </div>\n\n              <div class='mr-keyhint'>\n                <p class='mr-keyhint-label'>\n                  Match: <span class='key-demo'>j</span>\n                </p>\n              </div>\n\n           </div>\n\n        </div>",
            "key_press": 70,
            "trial_part": "trial",
            "task": "MR",
            "item_id": "39_150_R",
            "item": 39,
            "item_type": "critical",
            "condition": true,
            "version": 150,
            "correct_response": false,
            "trial_type": "html-keyboard-response",
            "trial_index": 4,
            "time_elapsed": 10169,
            "internal_node_id": "0.0-4.0-0.0",
            "response": false,
            "is_correct": true
        },
        {
            "rt": 3032.300000000745,
            "stimulus": "<div class='mr-container'>\n\n           <div class='mr-img-container'>\n              <img class=\"mr-img\" src=\"/static/affordances/mental_rotation/43_150_R.jpg\">\n           </div>\n\n           <div class='mr-keyhint-container'>\n\n              <div class='mr-keyhint'>\n                <p class='mr-keyhint-label'>\n                  No match: <span class='key-demo'>f</span>\n                </p>\n              </div>\n\n              <div class='mr-keyhint'>\n                <p class='mr-keyhint-label'>\n                  Match: <span class='key-demo'>j</span>\n                </p>\n              </div>\n\n           </div>\n\n        </div>",
            "key_press": 70,
            "trial_part": "trial",
            "task": "MR",
            "item_id": "43_150_R",
            "item": 43,
            "item_type": "critical",
            "condition": true,
            "version": 150,
            "correct_response": false,
            "trial_type": "html-keyboard-response",
            "trial_index": 5,
            "time_elapsed": 13704,
            "internal_node_id": "0.0-4.0-0.1",
            "response": false,
            "is_correct": true
        },
        {
            "rt": 1113,
            "stimulus": "<div class='mr-container'>\n\n           <div class='mr-img-container'>\n              <img class=\"mr-img\" src=\"/static/affordances/mental_rotation/19_50_R.jpg\">\n           </div>\n\n           <div class='mr-keyhint-container'>\n\n              <div class='mr-keyhint'>\n                <p class='mr-keyhint-label'>\n                  No match: <span class='key-demo'>f</span>\n                </p>\n              </div>\n\n              <div class='mr-keyhint'>\n                <p class='mr-keyhint-label'>\n                  Match: <span class='key-demo'>j</span>\n                </p>\n              </div>\n\n           </div>\n\n        </div>",
            "key_press": 74,
            "trial_part": "trial",
            "task": "MR",
            "item_id": "19_50_R",
            "item": 19,
            "item_type": "critical",
            "condition": true,
            "version": 50,
            "correct_response": false,
            "trial_type": "html-keyboard-response",
            "trial_index": 6,
            "time_elapsed": 15319,
            "internal_node_id": "0.0-4.0-0.2",
            "response": true,
            "is_correct": false
        },
        {
            "rt": 1125.199999999255,
            "stimulus": "<div class='mr-container'>\n\n           <div class='mr-img-container'>\n              <img class=\"mr-img\" src=\"/static/affordances/mental_rotation/46_0.jpg\">\n           </div>\n\n           <div class='mr-keyhint-container'>\n\n              <div class='mr-keyhint'>\n                <p class='mr-keyhint-label'>\n                  No match: <span class='key-demo'>f</span>\n                </p>\n              </div>\n\n              <div class='mr-keyhint'>\n                <p class='mr-keyhint-label'>\n                  Match: <span class='key-demo'>j</span>\n                </p>\n              </div>\n\n           </div>\n\n        </div>",
            "key_press": 74,
            "trial_part": "trial",
            "task": "MR",
            "item_id": "46_0",
            "item": 46,
            "item_type": "filler",
            "condition": false,
            "version": 0,
            "correct_response": true,
            "trial_type": "html-keyboard-response",
            "trial_index": 7,
            "time_elapsed": 16950,
            "internal_node_id": "0.0-4.0-0.3",
            "response": true,
            "is_correct": true
        },
        {
            "rt": 1048.8999999985099,
            "stimulus": "<div class='mr-container'>\n\n           <div class='mr-img-container'>\n              <img class=\"mr-img\" src=\"/static/affordances/mental_rotation/3_0_R.jpg\">\n           </div>\n\n           <div class='mr-keyhint-container'>\n\n              <div class='mr-keyhint'>\n                <p class='mr-keyhint-label'>\n                  No match: <span class='key-demo'>f</span>\n                </p>\n              </div>\n\n              <div class='mr-keyhint'>\n                <p class='mr-keyhint-label'>\n                  Match: <span class='key-demo'>j</span>\n                </p>\n              </div>\n\n           </div>\n\n        </div>",
            "key_press": 74,
            "trial_part": "trial",
            "task": "MR",
            "item_id": "3_0_R",
            "item": 3,
            "item_type": "critical",
            "condition": true,
            "version": 0,
            "correct_response": false,
            "trial_type": "html-keyboard-response",
            "trial_index": 8,
            "time_elapsed": 18504,
            "internal_node_id": "0.0-4.0-0.4",
            "response": true,
            "is_correct": false
        },
        {
            "rt": 967.5999999977648,
            "stimulus": "<div class='mr-container'>\n\n           <div class='mr-img-container'>\n              <img class=\"mr-img\" src=\"/static/affordances/mental_rotation/29_0.jpg\">\n           </div>\n\n           <div class='mr-keyhint-container'>\n\n              <div class='mr-keyhint'>\n                <p class='mr-keyhint-label'>\n                  No match: <span class='key-demo'>f</span>\n                </p>\n              </div>\n\n              <div class='mr-keyhint'>\n                <p class='mr-keyhint-label'>\n                  Match: <span class='key-demo'>j</span>\n                </p>\n              </div>\n\n           </div>\n\n        </div>",
            "key_press": 74,
            "trial_part": "trial",
            "task": "MR",
            "item_id": "29_0",
            "item": 29,
            "item_type": "filler",
            "condition": false,
            "version": 0,
            "correct_response": true,
            "trial_type": "html-keyboard-response",
            "trial_index": 9,
            "time_elapsed": 19973,
            "internal_node_id": "0.0-4.0-0.5",
            "response": true,
            "is_correct": true
        },
        {
            "rt": 1644.699999999255,
            "stimulus": "<div class='mr-container'>\n\n           <div class='mr-img-container'>\n              <img class=\"mr-img\" src=\"/static/affordances/mental_rotation/2_0.jpg\">\n           </div>\n\n           <div class='mr-keyhint-container'>\n\n              <div class='mr-keyhint'>\n                <p class='mr-keyhint-label'>\n                  No match: <span class='key-demo'>f</span>\n                </p>\n              </div>\n\n              <div class='mr-keyhint'>\n                <p class='mr-keyhint-label'>\n                  Match: <span class='key-demo'>j</span>\n                </p>\n              </div>\n\n           </div>\n\n        </div>",
            "key_press": 74,
            "trial_part": "trial",
            "task": "MR",
            "item_id": "2_0",
            "item": 2,
            "item_type": "filler",
            "condition": false,
            "version": 0,
            "correct_response": true,
            "trial_type": "html-keyboard-response",
            "trial_index": 10,
            "time_elapsed": 22124,
            "internal_node_id": "0.0-4.0-0.6",
            "response": true,
            "is_correct": true
        },
        {
            "rt": 2442.10000000149,
            "stimulus": "<div class='mr-container'>\n\n           <div class='mr-img-container'>\n              <img class=\"mr-img\" src=\"/static/affordances/mental_rotation/12_150.jpg\">\n           </div>\n\n           <div class='mr-keyhint-container'>\n\n              <div class='mr-keyhint'>\n                <p class='mr-keyhint-label'>\n                  No match: <span class='key-demo'>f</span>\n                </p>\n              </div>\n\n              <div class='mr-keyhint'>\n                <p class='mr-keyhint-label'>\n                  Match: <span class='key-demo'>j</span>\n                </p>\n              </div>\n\n           </div>\n\n        </div>",
            "key_press": 74,
            "trial_part": "trial",
            "task": "MR",
            "item_id": "12_150",
            "item": 12,
            "item_type": "critical",
            "condition": false,
            "version": 150,
            "correct_response": true,
            "trial_type": "html-keyboard-response",
            "trial_index": 11,
            "time_elapsed": 25069,
            "internal_node_id": "0.0-4.0-0.7",
            "response": true,
            "is_correct": true
        }
    ],
    "ppt_id": 111
}