{
    "results": [
        {
            "rt": 18397.29999999702,
            "stimulus": "\n  <div class='instructions-container'>\n    <h2 class='instructions-header'>\n      Object Matching Task\n    </h2>\n    <p class='instructions'>\n      In this task, you will see a pair of objects made up of \n      small blocks. Your task is to figure out whether one of \n      the objects could be rotated to make it match up with the other\n      object.\n    </p>\n\n    <p class='instructions'>\n      If the objects can be rotated to match up, press the\n      <span class='key-demo'>j</span> key. If they can't, press the\n      <span class='key-demo'>f</span> key.\n    </p>\n\n    <p class='instructions' id='continue' ontouchstart=\"response(32)\">\n      <b>Press the spacebar to continue.</b>\n    </p>\n  </div>",
            "key_press": 32,
            "trial_type": "html-keyboard-response",
            "trial_index": 0,
            "time_elapsed": 18402,
            "internal_node_id": "0.0-0.0"
        },
        {
            "rt": 3152.699999999255,
            "stimulus": "\n  <div class='instructions-container'>\n    <h2 class='instructions-header'>\n      Object Matching Task | Example 1\n    </h2>\n    <p class='instructions'>\n      For example, if you saw the following pair of objects, \n      you would press <span class='key-demo'>j</span> key, because\n      the objects can be rotated to match.\n    </p>\n\n    <div class='mr-img-container'>\n      <img class=\"mr-img\" src=\"/static/affordances/mental_rotation/1_50.jpg\">\n    </div>\n\n    <p class='instructions' id='continue' ontouchstart=\"response(32)\">\n      <b>Press the spacebar to continue.</b>\n    </p>\n  </div>",
            "key_press": 32,
            "trial_type": "html-keyboard-response",
            "trial_index": 1,
            "time_elapsed": 22057,
            "internal_node_id": "0.0-1.0"
        },
        {
            "rt": 43512.20000000298,
            "stimulus": "\n  <div class='instructions-container'>\n    <h2 class='instructions-header'>\n      Object Matching Task | Example 2\n    </h2>\n    <p class='instructions'>\n      However, in this example, the objects cannot be rotated to match, \n      so you would press the <span class='key-demo'>f</span> key.\n    </p>\n\n    <div class='mr-img-container'>\n      <img class=\"mr-img\" src=\"/static/affordances/mental_rotation/1_50.jpg\">\n    </div>\n\n    <p class='instructions' id='continue' ontouchstart=\"response(32)\">\n      <b>Press the spacebar to continue.</b>\n    </p>\n  </div>",
            "key_press": 32,
            "trial_type": "html-keyboard-response",
            "trial_index": 2,
            "time_elapsed": 66078,
            "internal_node_id": "0.0-2.0"
        },
        {
            "rt": 4427.900000002235,
            "stimulus": "<div class='mr-container'>\n\n           <div class='mr-img-container'>\n              <img class=\"mr-img\" src=\"/static/affordances/mental_rotation/28_150.jpg\">\n           </div>\n\n           <div class='mr-keyhint-container'>\n\n              <div class='mr-keyhint'>\n                <p class='mr-keyhint-label'>\n                  No match: <span class='key-demo'>f</span>\n                </p>\n              </div>\n\n              <div class='mr-keyhint'>\n                <p class='mr-keyhint-label'>\n                  Match: <span class='key-demo'>j</span>\n                </p>\n              </div>\n\n           </div>\n\n        </div>",
            "key_press": 74,
            "trial_part": "trial",
            "task": "MR",
            "item_id": "28_150",
            "item": "28_150",
            "item_type": "critical",
            "condition": false,
            "version": 150,
            "correct_response": true,
            "trial_type": "html-keyboard-response",
            "trial_index": 3,
            "time_elapsed": 71011,
            "internal_node_id": "0.0-3.0-0.0"
        },
        {
            "rt": 2401.89999999851,
            "stimulus": "<div class='mr-container'>\n\n           <div class='mr-img-container'>\n              <img class=\"mr-img\" src=\"/static/affordances/mental_rotation/34_50_R.jpg\">\n           </div>\n\n           <div class='mr-keyhint-container'>\n\n              <div class='mr-keyhint'>\n                <p class='mr-keyhint-label'>\n                  No match: <span class='key-demo'>f</span>\n                </p>\n              </div>\n\n              <div class='mr-keyhint'>\n                <p class='mr-keyhint-label'>\n                  Match: <span class='key-demo'>j</span>\n                </p>\n              </div>\n\n           </div>\n\n        </div>",
            "key_press": 70,
            "trial_part": "trial",
            "task": "MR",
            "item_id": "34_50_R",
            "item": "34_50_R",
            "item_type": "critical",
            "condition": true,
            "version": 50,
            "correct_response": false,
            "trial_type": "html-keyboard-response",
            "trial_index": 4,
            "time_elapsed": 73917,
            "internal_node_id": "0.0-3.0-0.1"
        },
        {
            "rt": 2258.400000002235,
            "stimulus": "<div class='mr-container'>\n\n           <div class='mr-img-container'>\n              <img class=\"mr-img\" src=\"/static/affordances/mental_rotation/40_100.jpg\">\n           </div>\n\n           <div class='mr-keyhint-container'>\n\n              <div class='mr-keyhint'>\n                <p class='mr-keyhint-label'>\n                  No match: <span class='key-demo'>f</span>\n                </p>\n              </div>\n\n              <div class='mr-keyhint'>\n                <p class='mr-keyhint-label'>\n                  Match: <span class='key-demo'>j</span>\n                </p>\n              </div>\n\n           </div>\n\n        </div>",
            "key_press": 70,
            "trial_part": "trial",
            "task": "MR",
            "item_id": "40_100",
            "item": "40_100",
            "item_type": "critical",
            "condition": false,
            "version": 100,
            "correct_response": true,
            "trial_type": "html-keyboard-response",
            "trial_index": 5,
            "time_elapsed": 76679,
            "internal_node_id": "0.0-3.0-0.2"
        },
        {
            "rt": 3472.599999997765,
            "stimulus": "<div class='mr-container'>\n\n           <div class='mr-img-container'>\n              <img class=\"mr-img\" src=\"/static/affordances/mental_rotation/26_50.jpg\">\n           </div>\n\n           <div class='mr-keyhint-container'>\n\n              <div class='mr-keyhint'>\n                <p class='mr-keyhint-label'>\n                  No match: <span class='key-demo'>f</span>\n                </p>\n              </div>\n\n              <div class='mr-keyhint'>\n                <p class='mr-keyhint-label'>\n                  Match: <span class='key-demo'>j</span>\n                </p>\n              </div>\n\n           </div>\n\n        </div>",
            "key_press": 74,
            "trial_part": "trial",
            "task": "MR",
            "item_id": "26_50",
            "item": "26_50",
            "item_type": "critical",
            "condition": false,
            "version": 50,
            "correct_response": true,
            "trial_type": "html-keyboard-response",
            "trial_index": 6,
            "time_elapsed": 80658,
            "internal_node_id": "0.0-3.0-0.3"
        },
        {
            "rt": 1773,
            "stimulus": "<div class='mr-container'>\n\n           <div class='mr-img-container'>\n              <img class=\"mr-img\" src=\"/static/affordances/mental_rotation/3_50.jpg\">\n           </div>\n\n           <div class='mr-keyhint-container'>\n\n              <div class='mr-keyhint'>\n                <p class='mr-keyhint-label'>\n                  No match: <span class='key-demo'>f</span>\n                </p>\n              </div>\n\n              <div class='mr-keyhint'>\n                <p class='mr-keyhint-label'>\n                  Match: <span class='key-demo'>j</span>\n                </p>\n              </div>\n\n           </div>\n\n        </div>",
            "key_press": 74,
            "trial_part": "trial",
            "task": "MR",
            "item_id": "3_50",
            "item": "3_50",
            "item_type": "critical",
            "condition": false,
            "version": 50,
            "correct_response": true,
            "trial_type": "html-keyboard-response",
            "trial_index": 7,
            "time_elapsed": 82936,
            "internal_node_id": "0.0-3.0-0.4"
        },
        {
            "rt": 1901.5,
            "stimulus": "<div class='mr-container'>\n\n           <div class='mr-img-container'>\n              <img class=\"mr-img\" src=\"/static/affordances/mental_rotation/47_0.jpg\">\n           </div>\n\n           <div class='mr-keyhint-container'>\n\n              <div class='mr-keyhint'>\n                <p class='mr-keyhint-label'>\n                  No match: <span class='key-demo'>f</span>\n                </p>\n              </div>\n\n              <div class='mr-keyhint'>\n                <p class='mr-keyhint-label'>\n                  Match: <span class='key-demo'>j</span>\n                </p>\n              </div>\n\n           </div>\n\n        </div>",
            "key_press": 74,
            "trial_part": "trial",
            "task": "MR",
            "item_id": "47_0",
            "item": "47_0",
            "item_type": "filler",
            "condition": false,
            "version": 0,
            "correct_response": true,
            "trial_type": "html-keyboard-response",
            "trial_index": 8,
            "time_elapsed": 85343,
            "internal_node_id": "0.0-3.0-0.5"
        },
        {
            "rt": 2181.800000000745,
            "stimulus": "<div class='mr-container'>\n\n           <div class='mr-img-container'>\n              <img class=\"mr-img\" src=\"/static/affordances/mental_rotation/12_0.jpg\">\n           </div>\n\n           <div class='mr-keyhint-container'>\n\n              <div class='mr-keyhint'>\n                <p class='mr-keyhint-label'>\n                  No match: <span class='key-demo'>f</span>\n                </p>\n              </div>\n\n              <div class='mr-keyhint'>\n                <p class='mr-keyhint-label'>\n                  Match: <span class='key-demo'>j</span>\n                </p>\n              </div>\n\n           </div>\n\n        </div>",
            "key_press": 74,
            "trial_part": "trial",
            "task": "MR",
            "item_id": "12_0",
            "item": "12_0",
            "item_type": "filler",
            "condition": false,
            "version": 0,
            "correct_response": true,
            "trial_type": "html-keyboard-response",
            "trial_index": 9,
            "time_elapsed": 88030,
            "internal_node_id": "0.0-3.0-0.6"
        },
        {
            "rt": 1057.0999999977648,
            "stimulus": "<div class='mr-container'>\n\n           <div class='mr-img-container'>\n              <img class=\"mr-img\" src=\"/static/affordances/mental_rotation/24_0.jpg\">\n           </div>\n\n           <div class='mr-keyhint-container'>\n\n              <div class='mr-keyhint'>\n                <p class='mr-keyhint-label'>\n                  No match: <span class='key-demo'>f</span>\n                </p>\n              </div>\n\n              <div class='mr-keyhint'>\n                <p class='mr-keyhint-label'>\n                  Match: <span class='key-demo'>j</span>\n                </p>\n              </div>\n\n           </div>\n\n        </div>",
            "key_press": 74,
            "trial_part": "trial",
            "task": "MR",
            "item_id": "24_0",
            "item": "24_0",
            "item_type": "filler",
            "condition": false,
            "version": 0,
            "correct_response": true,
            "trial_type": "html-keyboard-response",
            "trial_index": 10,
            "time_elapsed": 89593,
            "internal_node_id": "0.0-3.0-0.7"
        },
        {
            "rt": 3291.599999997765,
            "stimulus": "\n  <div class='instructions-container'>\n    <h2 class='instructions-header'>\n      Segment Complete\n    </h2>\n    <p class='instructions'>\n      That concludes this segment of the experiment.\n      Press the spacebar to continue to the next segment.\n    </p>\n  </div>",
            "key_press": 32,
            "trial_type": "html-keyboard-response",
            "trial_index": 11,
            "time_elapsed": 93388,
            "internal_node_id": "0.0-4.0"
        }
    ],
    "ppt_id": 107
}